#time,accel_x,accel_y,accel_z
29053.720948,296.082377,153.219100,9178.553681
29053.721277,592.164754,0.000000,9548.656652
29053.721606,0.000000,766.095498,9474.636058
29053.721935,-222.061783,536.266849,9178.553681
29053.722263,-740.205942,0.000000,8882.471304
29053.722592,74.020594,0.000000,9178.553681
29053.722921,0.000000,459.657299,9844.739029
29053.723250,0.000000,766.095498,9400.615463
29053.723578,0.000000,459.657299,8956.491898
29053.723907,740.205942,612.876398,9252.574275
29053.724236,666.185348,1149.143247,10066.800811
29053.724565,-1036.288319,1302.362347,9252.574275
29053.724893,0.000000,229.828649,9474.636058
29053.725222,-222.061783,-229.828649,9696.697840
29053.725551,-592.164754,76.609550,10066.800811
29053.725880,-1110.308913,459.657299,9770.718434
29053.726208,-1184.329507,-306.438199,9104.533087
29053.726537,-592.164754,-229.828649,9252.574275
29053.726866,-370.102971,612.876398,9326.594869
29053.727195,-148.041188,1149.143247,9548.656652
29053.727523,-296.082377,1149.143247,8956.491898
29053.727852,592.164754,1225.752797,8882.471304
29053.728181,1332.370696,1149.143247,9474.636058
29053.728510,0.000000,2451.505594,9178.553681
29053.728838,-592.164754,1685.410096,8068.244768
29053.729167,148.041188,689.485948,8660.409521
29053.729496,-222.061783,766.095498,9474.636058
29053.729825,-1258.350101,1378.971896,9326.594869
29053.730154,-1480.411884,842.705048,8734.430116
29053.730482,-1628.453072,383.047749,9252.574275
29053.730811,-1258.350101,1455.581446,9622.677246
29053.731140,-1702.473667,1838.629195,9770.718434
29053.731469,-2072.576638,2681.334243,9548.656652
29053.731797,-1998.556043,1991.848295,9400.615463
29053.732126,-1332.370696,2145.067394,10214.842000
29053.732455,-2368.659014,2834.553343,9992.780217
29053.732784,-3404.947333,3217.601092,9326.594869
29053.733112,-2664.741391,2374.896044,8882.471304
29053.733441,-2220.617826,2987.772442,9474.636058
29053.733770,-3701.029710,3370.820191,9548.656652
29053.734099,-3997.112087,3217.601092,8734.430116
29053.734427,-3775.050304,2528.115143,8512.368333
29053.734756,-3478.967927,2528.115143,8660.409521
29053.735085,-3256.906145,3600.648841,9178.553681
29053.735414,-3182.885551,4519.963438,8438.347739
29053.735742,-2368.659014,4060.306139,7550.100608
29053.736071,-1554.432478,3064.381992,8438.347739
29053.736400,-1554.432478,3830.477490,9326.594869
29053.736729,-1776.494261,4290.134789,8586.388927
29053.737057,-814.226536,3217.601092,8364.327145
29053.737386,-222.061783,2221.676944,9252.574275
29053.737715,-666.185348,2834.553343,9622.677246
29053.738044,-1184.329507,3217.601092,9474.636058
29053.738372,-888.247130,2451.505594,9400.615463
29053.738701,-740.205942,1378.971896,9918.759623
29053.739030,-1184.329507,1762.019645,10436.903782
29053.739359,-1258.350101,2451.505594,10807.006753
29053.739687,-1628.453072,2221.676944,10436.903782
29053.740016,-1554.432478,2145.067394,10807.006753
29053.740345,-2294.638420,2451.505594,11843.295072
29053.740674,-3627.009116,2911.162892,11473.192101
29053.741003,-4071.132681,2681.334243,10288.862594
29053.741331,-3775.050304,1838.629195,10140.821405
29053.741660,-4737.318029,2451.505594,10214.842000
29053.741989,-5181.441594,3907.087040,9474.636058
29053.742318,-4589.276840,4213.525239,8364.327145
29053.742646,-4145.153275,2911.162892,7994.224174
29053.742975,-4071.132681,4213.525239,7402.059420
29053.743304,-3330.926739,4366.744339,6957.935855
29053.743633,-3034.844362,4443.353888,5847.626942
29053.743961,-888.247130,3753.867940,5181.441594
29053.744290,0.000000,3140.991542,6143.709319
29053.744619,-1258.350101,3753.867940,6735.874072
29053.744948,-1258.350101,2528.115143,6587.832884
29053.745276,-518.144159,459.657299,7772.162391
29053.745605,-1184.329507,383.047749,9474.636058
29053.745934,-1850.514855,1225.752797,10436.903782
29053.746263,-1628.453072,1302.362347,10658.965565
29053.746591,-1036.288319,1225.752797,11399.171507
29053.746920,0.000000,1302.362347,11251.130318
29053.747249,666.185348,1838.629195,11473.192101
29053.747578,1184.329507,2987.772442,10510.924376
29053.747906,2146.597232,3064.381992,9474.636058
29053.748235,3404.947333,1762.019645,9918.759623
29053.748564,2516.700203,1149.143247,10214.842000
29053.748893,666.185348,536.266849,9770.718434
29053.749221,0.000000,-1762.019645,10214.842000
29053.749550,-1258.350101,-3294.210641,11843.295072
29053.749879,-4071.132681,-2987.772442,13323.706956
29053.750208,-5625.565159,-2987.772442,14211.954086
29053.750536,-5995.668130,-2987.772442,14211.954086
29053.750865,-5921.647536,-1608.800546,13989.892304
29053.751194,-5921.647536,1149.143247,13693.809927
29053.751523,-4811.338623,5439.278036,11843.295072
29053.751851,-3182.885551,8427.050478,7846.182985
29053.752180,0.000000,8810.098227,5847.626942
29053.752509,296.082377,10035.851024,3627.009116
29053.752838,-888.247130,10495.508323,1850.514855
29053.753167,-1406.391290,8886.707777,1406.391290
29053.753495,-2072.576638,5592.497135,2886.803174
29053.753824,-3923.091493,2221.676944,4293.194464
29053.754153,-7031.956449,612.876398,4737.318029
29053.754482,-6957.935855,-1915.238745,5773.606348
29053.754810,-5921.647536,-3830.477490,8808.450710
29053.755139,-5699.585753,-3447.429741,10955.047942
29053.755468,-3923.091493,-1608.800546,11177.109724
29053.755797,-1998.556043,612.876398,11473.192101
29053.756125,-370.102971,3753.867940,11621.233289
29053.756454,1036.288319,5822.325785,13915.871710
29053.756783,-814.226536,7737.564530,13619.789333
29053.757112,-1776.494261,7660.954980,13397.727550
29053.757440,-1184.329507,6665.030833,13397.727550
29053.757769,-1258.350101,7201.297681,12287.418637
29053.758098,-1406.391290,8273.831378,11399.171507
29053.758427,-2220.617826,6205.373534,10140.821405
29053.758755,-2664.741391,4290.134789,8290.306550
29053.759084,-1554.432478,2221.676944,7105.977043
29053.759413,-1850.514855,2451.505594,7328.038826
29053.759742,-3404.947333,1762.019645,5255.462188
29053.760070,-2664.741391,-153.219100,3923.091493
29053.760399,-740.205942,-1915.238745,5255.462188
29053.760728,-814.226536,-1149.143247,7254.018232
29053.761057,-2368.659014,612.876398,7772.162391
29053.761385,-1628.453072,689.485948,9400.615463
29053.761714,-1184.329507,2298.286494,11547.212695
29053.762043,-2886.803174,4519.963438,13175.665768
29053.762372,-3552.988522,4903.011187,12879.583391
29053.762700,-2368.659014,6281.983084,10881.027347
29053.763029,-370.102971,9116.536426,9918.759623
29053.763358,814.226536,10495.508323,9770.718434
29053.763687,1258.350101,9499.584175,7402.059420
29053.764016,2146.597232,7201.297681,4367.215058
29053.764344,2294.638420,3907.087040,4737.318029
29053.764673,1332.370696,1762.019645,4737.318029
29053.765002,518.144159,-612.876398,4737.318029
29053.765331,-1850.514855,-4673.182538,7772.162391
29053.765659,-5255.462188,-8120.612279,11473.192101
29053.765988,-7698.141797,-10035.851024,15322.262999
29053.766317,-9326.594869,-11031.775171,18209.066173
29053.766646,-9770.718434,-9116.536426,20503.704593
29053.766974,-7846.182985,-5822.325785,18949.272115
29053.767303,-4885.359217,-612.876398,17246.798449
29053.767632,-1850.514855,6435.202183,16136.489536
29053.767961,1332.370696,12563.966167,9918.759623
29053.768289,4811.338623,15321.909960,3701.029710
29053.768618,7624.121203,14862.252661,-0.000000
29053.768947,7698.141797,13253.452115,-2516.700203
29053.769276,3404.947333,10572.117872,-1258.350101
29053.769604,-1998.556043,5898.935335,1332.370696
29053.769933,-6587.832884,-229.828649,3775.050304
29053.770262,-11177.109724,-7048.078582,7994.224174
29053.770591,-13101.645173,-11797.870669,10658.965565
29053.770919,-13027.624579,-11874.480219,11843.295072
29053.771248,-12879.583391,-9499.584175,13915.871710
29053.771577,-11547.212695,-5592.497135,15248.242405
29053.771906,-4737.318029,-1378.971896,13471.748144
29053.772234,3034.844362,6588.421283,11843.295072
29053.772563,7179.997637,14709.033562,7402.059420
29053.772892,9178.553681,14172.766713,3478.967927
29053.773221,8660.409521,12104.308868,3923.091493
29053.773549,7994.224174,12717.185267,7698.141797
29053.773878,5477.523971,11797.870669,12509.480420
29053.774207,1110.308913,5898.935335,11103.089130
29053.774536,-4219.173869,-919.314598,10214.842000
29053.774865,-6069.688724,-5898.935335,11251.130318
29053.775193,-5699.585753,-4826.401637,12805.562797
29053.775522,-5551.544565,-3524.039291,14137.933492
29053.775851,-4737.318029,-4903.011187,11621.233289
29053.776179,-2516.700203,-5286.058936,7920.203579
29053.776507,-740.205942,-842.705048,7031.956449
29053.776836,740.205942,6205.373534,7105.977043
29053.777164,962.267725,6128.763984,8290.306550
29053.777493,-370.102971,2528.115143,9104.533087
29053.777821,962.267725,2145.067394,8586.388927
29053.778150,2516.700203,6281.983084,9770.718434
29053.778478,3256.906145,7967.393179,9844.739029
29053.778807,3330.926739,5592.497135,8734.430116
29053.779135,5033.400406,1991.848295,8586.388927
29053.779464,5699.585753,3830.477490,7772.162391
29053.779792,4811.338623,3600.648841,8068.244768
29053.780121,2664.741391,842.705048,6513.812290
29053.780449,222.061783,-2298.286494,7476.080014
29053.780778,-2738.761985,-3600.648841,9548.656652
29053.781106,-3627.009116,-5132.839837,9474.636058
29053.781435,-3478.967927,-6741.640382,9252.574275
29053.781763,-4071.132681,-7354.516781,10140.821405
29053.782092,-3775.050304,-1838.629195,11177.109724
29053.782420,-1184.329507,306.438199,10584.944971
29053.782749,1258.350101,-459.657299,9252.574275
29053.783077,1628.453072,-766.095498,8216.285956
29053.783405,518.144159,2145.067394,10140.821405
29053.783734,814.226536,4749.792088,11473.192101
29053.784062,814.226536,3524.039291,11769.274478
29053.784391,-592.164754,-1838.629195,11695.253884
29053.784719,-1406.391290,-3600.648841,9400.615463
29053.785048,-370.102971,-1302.362347,8734.430116
29053.785376,222.061783,459.657299,9992.780217
29053.785705,518.144159,-1455.581446,8882.471304
29053.786033,1036.288319,-5056.230287,7772.162391
29053.786362,-666.185348,-3370.820191,6809.894666
29053.786690,-1628.453072,-229.828649,8068.244768
29053.787019,-3182.885551,76.609550,9548.656652
29053.787347,-4589.276840,-1991.848295,10362.883188
29053.787676,-4589.276840,-3064.381992,10436.903782
29053.788004,-3997.112087,-842.705048,10066.800811
29053.788333,-1332.370696,2834.553343,9844.739029
29053.788661,814.226536,3983.696590,8438.347739
29053.788990,2812.782580,4443.353888,5551.544565
29053.789318,4663.297435,4136.915689,5551.544565
29053.789647,3997.112087,5362.668486,7031.956449
29053.789975,2516.700203,5439.278036,8364.327145
29053.790303,1628.453072,2068.457845,9178.553681
29053.790632,296.082377,-1685.410096,9548.656652
29053.790960,0.000000,-3217.601092,9992.780217
29053.791289,-740.205942,-2528.115143,11917.315666
29053.791617,-1406.391290,-2068.457845,12731.542202
29053.791946,-1110.308913,-2987.772442,12435.459826
29053.792274,1406.391290,-3677.258390,11917.315666
29053.792603,2960.823768,0.000000,12213.398043
29053.792931,1850.514855,4213.525239,8956.491898
29053.793260,0.000000,4443.353888,7772.162391
29053.793588,-1036.288319,2451.505594,8586.388927
29053.793917,-222.061783,1838.629195,9622.677246
29053.794245,-518.144159,3524.039291,11029.068536
29053.794574,-2146.597232,3830.477490,9400.615463
29053.794902,-444.123565,3140.991542,6735.874072
29053.795231,2664.741391,536.266849,7254.018232
29053.795559,2664.741391,1149.143247,7402.059420
29053.795888,1776.494261,3294.210641,6661.853478
29053.796216,1924.535449,2681.334243,4885.359217
29053.796545,1628.453072,842.705048,5329.482782
29053.796873,0.000000,153.219100,8808.450710
29053.797201,-2368.659014,995.924147,9918.759623
29053.797530,-1998.556043,-383.047749,9178.553681
29053.797858,-2220.617826,-2757.943793,10288.862594
29053.798187,-2590.720797,-1838.629195,12583.501014
29053.798515,-1480.411884,1225.752797,10658.965565
29053.798844,1628.453072,1149.143247,8142.265362
29053.799172,1924.535449,-536.266849,8068.244768
29053.799501,0.000000,1072.533697,7772.162391
29053.799829,148.041188,4136.915689,9844.739029
29053.800158,592.164754,3600.648841,11325.150913
29053.800486,222.061783,-536.266849,10214.842000
29053.800815,-1036.288319,-4673.182538,10140.821405
29053.801143,-2072.576638,-3753.867940,9622.677246
29053.801472,0.000000,-1149.143247,10214.842000
29053.801800,2294.638420,-1762.019645,11843.295072
29053.802129,3256.906145,-3294.210641,11399.171507
29053.802457,2146.597232,-3447.429741,9622.677246
29053.802786,814.226536,-612.876398,8808.450710
29053.803114,444.123565,1378.971896,9622.677246
29053.803443,296.082377,536.266849,10732.986159
29053.803771,-370.102971,76.609550,11399.171507
29053.804099,-2442.679609,1072.533697,10066.800811
29053.804428,-1998.556043,842.705048,8586.388927
29053.804756,-888.247130,-153.219100,8142.265362
29053.805085,740.205942,0.000000,7476.080014
29053.805413,1036.288319,766.095498,6809.894666
29053.805742,370.102971,1378.971896,6735.874072
29053.806070,0.000000,689.485948,7328.038826
29053.806399,-1480.411884,0.000000,8660.409521
29053.806727,-3404.947333,-1608.800546,8290.306550
29053.807056,-3627.009116,-3753.867940,7994.224174
29053.807384,-2960.823768,-4596.572988,8882.471304
29053.807713,-1924.535449,-1915.238745,11695.253884
29053.808041,-296.082377,306.438199,12509.480420
29053.808370,1776.494261,76.609550,10362.883188
29053.808698,4219.173869,76.609550,8882.471304
29053.809027,3330.926739,2145.067394,9178.553681
29053.809355,1702.473667,6205.373534,9548.656652
29053.809684,1702.473667,4903.011187,10362.883188
29053.810012,1554.432478,1455.581446,10881.027347
29053.810341,-1184.329507,0.000000,10732.986159
29053.810669,-2886.803174,612.876398,8586.388927
29053.810997,-1258.350101,1378.971896,7698.141797
29053.811326,370.102971,842.705048,8956.491898
29053.811654,74.020594,-306.438199,8882.471304
29053.811983,0.000000,-383.047749,8142.265362
29053.812311,-1184.329507,1532.190996,6587.832884
29053.812640,-592.164754,2451.505594,6069.688724
29053.812968,-962.267725,1378.971896,9252.574275
29053.813297,-3923.091493,1762.019645,11029.068536
29053.813625,-3923.091493,2298.286494,9844.739029
29053.813954,-3478.967927,-1302.362347,9844.739029
29053.814282,-2294.638420,-995.924147,10066.800811
29053.814611,518.144159,1762.019645,9252.574275
29053.814939,3182.885551,3677.258390,9030.512492
29053.815268,4071.132681,4596.572988,9030.512492
29053.815596,3034.844362,2987.772442,8586.388927
29053.815925,2072.576638,3370.820191,8586.388927
29053.816253,2368.659014,2834.553343,7402.059420
29053.816582,1332.370696,2068.457845,8882.471304
29053.816910,222.061783,229.828649,11029.068536
29053.817239,444.123565,-459.657299,10584.944971
29053.817567,666.185348,-612.876398,9474.636058
29053.817896,1184.329507,-1991.848295,9474.636058
29053.818224,2442.679609,-2221.676944,9696.697840
29053.818552,1924.535449,766.095498,9178.553681
29053.818881,222.061783,1532.190996,9474.636058
29053.819209,-592.164754,0.000000,9548.656652
29053.819538,-1332.370696,-1532.190996,10436.903782
29053.819866,-1406.391290,-1532.190996,10955.047942
29053.820195,-3478.967927,459.657299,11843.295072
29053.820523,-2664.741391,-1149.143247,10807.006753
29053.820852,962.267725,-3217.601092,10362.883188
29053.821180,2590.720797,-1685.410096,10140.821405
29053.821509,2442.679609,1072.533697,7994.224174
29053.821837,3330.926739,1378.971896,5329.482782
29053.822166,2368.659014,1149.143247,6957.935855
29053.822494,1554.432478,1532.190996,8734.430116
29053.822823,-592.164754,76.609550,8660.409521
29053.823151,-1850.514855,-1762.019645,8956.491898
29053.823480,-3627.009116,-2528.115143,9400.615463
29053.823808,-3627.009116,-1915.238745,9252.574275
29053.824137,-1702.473667,-229.828649,10066.800811
29053.824465,-296.082377,76.609550,9030.512492
29053.824794,1110.308913,-306.438199,7031.956449
29053.825122,1998.556043,2374.896044,7402.059420
29053.825450,1258.350101,4979.620737,8364.327145
29053.825779,518.144159,4903.011187,9326.594869
29053.826107,0.000000,1072.533697,9622.677246
29053.826436,-888.247130,-1072.533697,10288.862594
29053.826764,-3701.029710,0.000000,10288.862594
29053.827093,-2886.803174,0.000000,9918.759623
29053.827421,-962.267725,-2451.505594,11325.150913
29053.827750,370.102971,-2451.505594,10510.924376
29053.828078,814.226536,-1838.629195,11621.233289
29053.828407,370.102971,306.438199,10658.965565
29053.828735,0.000000,1378.971896,9548.656652
29053.829064,222.061783,766.095498,10584.944971
29053.829392,-962.267725,919.314598,10362.883188
29053.829721,-1480.411884,1838.629195,9548.656652
29053.830049,-444.123565,1532.190996,9178.553681
29053.830378,518.144159,1378.971896,9400.615463
29053.830706,1480.411884,2374.896044,8512.368333
29053.831035,1628.453072,3217.601092,7179.997637
29053.831363,1924.535449,2834.553343,6957.935855
29053.831692,1554.432478,2681.334243,6587.832884
29053.832020,518.144159,2604.724693,7624.121203
29053.832348,-518.144159,1532.190996,8438.347739
29053.832677,-2368.659014,0.000000,8068.244768
29053.833005,-1998.556043,-1685.410096,9474.636058
29053.833334,-1110.308913,-1072.533697,10584.944971
29053.833662,-1702.473667,919.314598,10584.944971
29053.833991,0.000000,-153.219100,9474.636058
29053.834319,2812.782580,-919.314598,8512.368333
29053.834648,3108.864956,1608.800546,8512.368333
29053.834976,1628.453072,3830.477490,8586.388927
29053.835305,1110.308913,3294.210641,8512.368333
29053.835633,0.000000,766.095498,10436.903782
29053.835962,-1480.411884,-766.095498,11103.089130
29053.836290,-2590.720797,-1149.143247,10732.986159
29053.836619,-1702.473667,-1225.752797,9918.759623
29053.836947,814.226536,-459.657299,10732.986159
29053.837276,2590.720797,-383.047749,11251.130318
29053.837604,2368.659014,0.000000,9844.739029
29053.837933,2590.720797,0.000000,7105.977043
29053.838261,2590.720797,306.438199,7179.997637
29053.838590,1628.453072,1455.581446,7846.182985
29053.838918,370.102971,2374.896044,9770.718434
29053.839246,-1702.473667,459.657299,10140.821405
29053.839575,-2664.741391,-1685.410096,9622.677246
29053.839903,-2442.679609,-2451.505594,8956.491898
29053.840232,-1406.391290,-383.047749,9252.574275
29053.840560,0.000000,1608.800546,8956.491898
29053.840889,2442.679609,0.000000,8734.430116
29053.841217,1850.514855,995.924147,8364.327145
29053.841546,-370.102971,1608.800546,8882.471304
29053.841874,-1332.370696,2374.896044,7179.997637
29053.842203,-814.226536,995.924147,7772.162391
29053.842531,-1184.329507,-1149.143247,9696.697840
29053.842860,-2738.761985,-536.266849,10288.862594
29053.843188,-1702.473667,-383.047749,10732.986159
29053.843517,148.041188,-1991.848295,10510.924376
29053.843845,2146.597232,-2221.676944,9696.697840
29053.844174,2368.659014,-689.485948,10584.944971
29053.844502,1998.556043,2528.115143,10658.965565
29053.844831,2220.617826,3600.648841,9844.739029
29053.845159,2072.576638,766.095498,10362.883188
29053.845488,-888.247130,-383.047749,11251.130318
29053.845816,-2368.659014,459.657299,9696.697840
29053.846144,-1406.391290,536.266849,9252.574275
29053.846473,-740.205942,-842.705048,10658.965565
29053.846801,-814.226536,-153.219100,11251.130318
29053.847130,0.000000,689.485948,8438.347739
29053.847458,1184.329507,459.657299,6365.771101
29053.847787,962.267725,612.876398,5773.606348
29053.848115,-296.082377,1378.971896,6661.853478
29053.848444,-1184.329507,3294.210641,8882.471304
29053.848772,-2294.638420,1915.238745,8956.491898
29053.849101,-2442.679609,-1532.190996,9030.512492
29053.849429,-2294.638420,-2528.115143,9474.636058
29053.849758,-2368.659014,383.047749,9770.718434
29053.850086,-740.205942,2604.724693,9770.718434
29053.850415,1924.535449,689.485948,9030.512492
29053.850743,2812.782580,-1072.533697,8512.368333
29053.851072,1924.535449,995.924147,7698.141797
29053.851400,1850.514855,4673.182538,8512.368333
29053.851729,1480.411884,4136.915689,9252.574275
29053.852057,666.185348,1455.581446,10881.027347
29053.852386,-296.082377,-919.314598,10510.924376
29053.852714,-1036.288319,0.000000,9622.677246
29053.853042,296.082377,919.314598,9400.615463
29053.853371,2590.720797,1072.533697,10881.027347
29053.853699,2294.638420,536.266849,10066.800811
29053.854028,1406.391290,536.266849,9548.656652
29053.854356,814.226536,612.876398,8142.265362
29053.854685,-1702.473667,306.438199,7402.059420
29053.855013,-2886.803174,229.828649,8438.347739
29053.855342,-4219.173869,0.000000,9548.656652
29053.855670,-5033.400406,-229.828649,10436.903782
29053.855999,-3849.070898,-1532.190996,10584.944971
29053.856327,-1924.535449,-2145.067394,10362.883188
29053.856656,-962.267725,-383.047749,8734.430116
29053.856984,1036.288319,842.705048,6883.915261
29053.857313,4441.235652,1762.019645,7105.977043
29053.857641,3330.926739,2374.896044,9474.636058
29053.857970,1554.432478,2911.162892,9178.553681
29053.858298,1110.308913,1608.800546,8956.491898
29053.858627,1110.308913,-1072.533697,9326.594869
29053.858955,-370.102971,-1455.581446,9770.718434
29053.859284,-296.082377,-995.924147,9844.739029
29053.859612,1776.494261,-459.657299,9844.739029
29053.859940,2664.741391,-459.657299,9252.574275
29053.860269,2072.576638,-1072.533697,8956.491898
29053.860597,1480.411884,919.314598,8290.306550
29053.860926,1406.391290,2221.676944,7624.121203
29053.861254,2220.617826,1762.019645,9992.780217
29053.861583,1036.288319,-306.438199,11843.295072
29053.861911,-1332.370696,1532.190996,12139.377449
29053.862240,-1776.494261,306.438199,10584.944971
29053.862568,-592.164754,-2145.067394,9992.780217
29053.862897,222.061783,-2681.334243,9622.677246
29053.863225,1036.288319,-842.705048,8364.327145
29053.863554,2738.761985,1072.533697,8808.450710
29053.863882,1776.494261,1302.362347,8068.244768
29053.864211,-296.082377,1225.752797,8660.409521
29053.864539,-2368.659014,306.438199,9252.574275
29053.864868,-3627.009116,536.266849,9474.636058
29053.865196,-3034.844362,-1455.581446,9104.533087
29053.865525,-2368.659014,-1915.238745,10140.821405
29053.865853,-2294.638420,-612.876398,10658.965565
29053.866182,-1184.329507,1455.581446,9178.553681
29053.866510,2516.700203,1455.581446,7698.141797
29053.866838,2886.803174,229.828649,8068.244768
29053.867167,296.082377,2681.334243,6513.812290
29053.867495,518.144159,4596.572988,6957.935855
29053.867824,222.061783,2987.772442,8216.285956
29053.868152,-1702.473667,612.876398,9400.615463
29053.868481,-2368.659014,-1608.800546,9844.739029
29053.868809,-3034.844362,-1532.190996,9622.677246
29053.869138,-1702.473667,-689.485948,9622.677246
29053.869466,666.185348,-612.876398,11547.212695
29053.869795,1702.473667,153.219100,11843.295072
29053.870123,1924.535449,2221.676944,10436.903782
29053.870452,2072.576638,842.705048,8438.347739
29053.870780,1184.329507,-306.438199,7105.977043
29053.871109,-888.247130,306.438199,9178.553681
29053.871437,-2960.823768,2451.505594,11325.150913
29053.871766,-2442.679609,919.314598,11473.192101
29053.872094,-1998.556043,-2145.067394,11029.068536
29053.872423,-1258.350101,-3524.039291,10362.883188
29053.872751,592.164754,76.609550,10807.006753
29053.873080,3108.864956,2757.943793,8808.450710
29053.873408,3997.112087,2451.505594,8438.347739
29053.873737,3182.885551,383.047749,8142.265362
29053.874065,1332.370696,1072.533697,7846.182985
29053.874393,0.000000,2681.334243,8586.388927
29053.874722,-1184.329507,2681.334243,10436.903782
29053.875050,-1850.514855,-1225.752797,9474.636058
29053.875379,-2072.576638,-3294.210641,8142.265362
29053.875707,-962.267725,-1302.362347,10140.821405
29053.876036,222.061783,1991.848295,9992.780217
29053.876364,2812.782580,1225.752797,7550.100608
29053.876693,1406.391290,383.047749,7402.059420
29053.877021,518.144159,995.924147,5921.647536
29053.877350,2368.659014,3140.991542,7105.977043
29053.877678,1110.308913,2604.724693,10066.800811
29053.878007,-2220.617826,689.485948,10955.047942
29053.878336,-3108.864956,-1608.800546,8660.409521
29053.878664,-1628.453072,-2834.553343,9844.739029
29053.878993,222.061783,-1378.971896,11103.089130
29053.879322,518.144159,383.047749,10955.047942
29053.879650,3034.844362,-459.657299,9770.718434
29053.879979,3923.091493,-229.828649,8438.347739
29053.880308,518.144159,919.314598,9326.594869
29053.880636,370.102971,1915.238745,9622.677246
29053.880965,370.102971,1838.629195,10066.800811
29053.881294,-740.205942,229.828649,12065.356855
29053.881622,-666.185348,-689.485948,10732.986159
29053.881951,-666.185348,-1072.533697,10732.986159
29053.882280,-814.226536,153.219100,9918.759623
29053.882608,2072.576638,0.000000,7476.080014
29053.882937,2812.782580,153.219100,9178.553681
29053.883266,1258.350101,1455.581446,9030.512492
29053.883594,-518.144159,2604.724693,6735.874072
29053.883923,-518.144159,689.485948,7402.059420
29053.884252,-2220.617826,-919.314598,8956.491898
29053.884580,-3330.926739,-1455.581446,8956.491898
29053.884909,-4145.153275,-536.266849,10214.842000
29053.885238,-2294.638420,-842.705048,9918.759623
29053.885566,148.041188,-842.705048,10214.842000
29053.885895,1480.411884,536.266849,10584.944971
29053.886224,1924.535449,2374.896044,8364.327145
29053.886552,2590.720797,2068.457845,6513.812290
29053.886881,2442.679609,1455.581446,8290.306550
29053.887210,740.205942,2298.286494,9992.780217
29053.887538,-1184.329507,2604.724693,9548.656652
29053.887867,-2072.576638,-383.047749,9770.718434
29053.888195,-2738.761985,-3064.381992,9918.759623
29053.888524,-1702.473667,-1685.410096,10807.006753
29053.888853,370.102971,536.266849,10732.986159
29053.889181,2146.597232,383.047749,10362.883188
29053.889510,2812.782580,383.047749,9548.656652
29053.889839,2886.803174,766.095498,8734.430116
29053.890167,1776.494261,2604.724693,7994.224174
29053.890496,-666.185348,2528.115143,7772.162391
29053.890825,-2072.576638,1072.533697,9474.636058
29053.891153,-2146.597232,-689.485948,10362.883188
29053.891482,-3182.885551,-459.657299,10362.883188
29053.891811,-2442.679609,-842.705048,9474.636058
29053.892139,-1036.288319,-766.095498,9474.636058
29053.892468,666.185348,766.095498,8882.471304
29053.892797,1406.391290,1915.238745,7550.100608
29053.893125,444.123565,1378.971896,6513.812290
29053.893454,666.185348,2757.943793,7105.977043
29053.893783,1258.350101,3370.820191,9252.574275
29053.894111,-518.144159,2374.896044,9992.780217
29053.894440,-2146.597232,76.609550,9844.739029
29053.894769,-2220.617826,-1455.581446,10214.842000
29053.895097,148.041188,0.000000,11029.068536
29053.895426,1850.514855,383.047749,10510.924376
29053.895755,1998.556043,1302.362347,9622.677246
29053.896083,2442.679609,1302.362347,9030.512492
29053.896412,2442.679609,1455.581446,7846.182985
29053.896741,1332.370696,2068.457845,9548.656652
29053.897069,-888.247130,2374.896044,10510.924376
29053.897398,-2146.597232,919.314598,9548.656652
29053.897727,-1480.411884,-1072.533697,10066.800811
29053.898055,-1554.432478,-1762.019645,11251.130318
29053.898384,-1628.453072,-919.314598,9844.739029
29053.898713,370.102971,-536.266849,9252.574275
29053.899041,2960.823768,-612.876398,9400.615463
29053.899370,2442.679609,0.000000,8956.491898
29053.899699,962.267725,1532.190996,7328.038826
29053.900027,1036.288319,1225.752797,7698.141797
29053.900356,-592.164754,1302.362347,9326.594869
29053.900685,-740.205942,153.219100,10732.986159
29053.901013,-1258.350101,-766.095498,10066.800811
29053.901342,-666.185348,-1608.800546,9918.759623
29053.901671,1776.494261,-842.705048,9992.780217
29053.901999,3627.009116,919.314598,10288.862594
29053.902328,2960.823768,1915.238745,9622.677246
29053.902656,2590.720797,1455.581446,7476.080014
29053.902985,2368.659014,1302.362347,7105.977043
29053.903314,1628.453072,1302.362347,7994.224174
29053.903642,-1702.473667,1991.848295,8956.491898
29053.903971,-2960.823768,689.485948,9622.677246
29053.904300,-2886.803174,-2145.067394,10436.903782
29053.904628,-3478.967927,-3064.381992,10140.821405
29053.904957,-2146.597232,-1991.848295,11103.089130
29053.905286,444.123565,0.000000,8808.450710
29053.905614,2072.576638,1608.800546,9252.574275
29053.905943,1776.494261,2374.896044,9030.512492
29053.906272,1036.288319,2298.286494,7624.121203
29053.906600,-1184.329507,1685.410096,8364.327145
29053.906929,-2220.617826,459.657299,9326.594869
29053.907258,-2220.617826,-459.657299,10881.027347
29053.907586,-3849.070898,-459.657299,11473.192101
29053.907915,-2812.782580,-1532.190996,10362.883188
29053.908244,-666.185348,-2451.505594,9400.615463
29053.908572,740.205942,-536.266849,9696.697840
29053.908901,1998.556043,2528.115143,9030.512492
29053.909230,2368.659014,2374.896044,6587.832884
29053.909558,2294.638420,2911.162892,6957.935855
29053.909887,2812.782580,2987.772442,8364.327145
29053.910216,0.000000,3753.867940,9252.574275
29053.910544,-1406.391290,1838.629195,9030.512492
29053.910873,-1406.391290,-995.924147,9770.718434
29053.911202,-296.082377,-1991.848295,11251.130318
29053.911530,1628.453072,-1225.752797,11547.212695
29053.911859,1110.308913,383.047749,9992.780217
29053.912188,814.226536,0.000000,9918.759623
29053.912516,0.000000,-766.095498,9548.656652
29053.912845,-740.205942,0.000000,8364.327145
29053.913174,-1924.535449,1762.019645,9918.759623
29053.913502,-2664.741391,1915.238745,9252.574275
29053.913831,-2072.576638,0.000000,8882.471304
29053.914160,-1702.473667,-1685.410096,10436.903782
29053.914488,-1554.432478,-306.438199,10288.862594
29053.914817,-148.041188,229.828649,8512.368333
29053.915146,2368.659014,-306.438199,7920.203579
29053.915474,2146.597232,536.266849,7994.224174
29053.915803,592.164754,2451.505594,7920.203579
29053.916132,888.247130,2221.676944,8216.285956
29053.916460,518.144159,153.219100,7994.224174
29053.916789,-518.144159,-1532.190996,10362.883188
29053.917117,-592.164754,766.095498,10732.986159
29053.917446,888.247130,1225.752797,9104.533087
29053.917775,1332.370696,-229.828649,9252.574275
29053.918103,2220.617826,-995.924147,9326.594869
29053.918432,3478.967927,1685.410096,7624.121203
29053.918761,3701.029710,3064.381992,7105.977043
29053.919089,3034.844362,1991.848295,7031.956449
29053.919418,0.000000,383.047749,8142.265362
29053.919747,-2960.823768,383.047749,10510.924376
29053.920075,-3775.050304,-306.438199,10066.800811
29053.920404,-4589.276840,-3677.258390,10214.842000
29053.920733,-3701.029710,-5975.544884,11103.089130
29053.921061,-1998.556043,-2987.772442,10955.047942
29053.921390,0.000000,995.924147,11251.130318
29053.921719,2294.638420,306.438199,9030.512492
29053.922047,2294.638420,-383.047749,8290.306550
29053.922376,814.226536,1838.629195,8586.388927
29053.922705,1406.391290,3677.258390,7550.100608
29053.923033,2516.700203,3217.601092,9326.594869
29053.923362,1406.391290,0.000000,11399.171507
29053.923691,0.000000,-306.438199,10436.903782
29053.924019,1036.288319,766.095498,10881.027347
29053.924348,3108.864956,766.095498,11399.171507
29053.924677,4293.194464,459.657299,10066.800811
29053.925005,4145.153275,1685.410096,9104.533087
29053.925334,3034.844362,2604.724693,6957.935855
29053.925663,1406.391290,4596.572988,6661.853478
29053.925991,0.000000,2298.286494,8216.285956
29053.926320,-2146.597232,612.876398,8660.409521
29053.926649,-4811.338623,-1149.143247,8438.347739
29053.926977,-6439.791695,-1915.238745,10214.842000
29053.927306,-5625.565159,-1915.238745,10881.027347
29053.927635,-3404.947333,-1685.410096,11325.150913
29053.927963,-2886.803174,-2374.896044,9030.512492
29053.928292,-1332.370696,-1838.629195,7550.100608
29053.928621,-1036.288319,0.000000,7179.997637
29053.928949,-444.123565,2374.896044,7698.141797
29053.929278,-1110.308913,3140.991542,10807.006753
29053.929607,-1702.473667,689.485948,10214.842000
29053.929935,-888.247130,-2298.286494,9400.615463
29053.930264,592.164754,-1685.410096,11251.130318
29053.930593,148.041188,1225.752797,12213.398043
29053.930921,1628.453072,1762.019645,10214.842000
29053.931250,4441.235652,-919.314598,9400.615463
29053.931578,4589.276840,-383.047749,8586.388927
29053.931907,2294.638420,3677.258390,7550.100608
29053.932236,2072.576638,4366.744339,6809.894666
29053.932564,1110.308913,2451.505594,8068.244768
29053.932893,-1406.391290,459.657299,9770.718434
29053.933222,-1628.453072,-76.609550,9400.615463
29053.933550,-2442.679609,-229.828649,9252.574275
29053.933879,-2072.576638,-766.095498,8734.430116
29053.934208,-592.164754,-995.924147,10140.821405
29053.934536,-592.164754,-1455.581446,9622.677246
29053.934865,-592.164754,612.876398,8512.368333
29053.935194,814.226536,306.438199,7254.018232
29053.935522,74.020594,536.266849,8956.491898
29053.935851,-1258.350101,1762.019645,9030.512492
29053.936180,-2442.679609,1915.238745,9696.697840
29053.936508,-1998.556043,-689.485948,9696.697840
29053.936837,-1406.391290,-2145.067394,9622.677246
29053.937166,814.226536,-1225.752797,10732.986159
29053.937494,2368.659014,1991.848295,11103.089130
29053.937823,3923.091493,2987.772442,9918.759623
29053.938152,4885.359217,842.705048,9104.533087
29053.938480,3330.926739,766.095498,8956.491898
29053.938809,1554.432478,2298.286494,7772.162391
29053.939138,666.185348,2911.162892,9474.636058
29053.939466,592.164754,612.876398,9918.759623
29053.939795,-518.144159,-1685.410096,10288.862594
29053.940124,-1776.494261,-2145.067394,9770.718434
29053.940452,-1184.329507,-1378.971896,9770.718434
29053.940781,1110.308913,76.609550,9400.615463
29053.941110,1924.535449,0.000000,8364.327145
29053.941438,962.267725,0.000000,8068.244768
29053.941767,296.082377,1685.410096,7476.080014
29053.942096,518.144159,2374.896044,9030.512492
29053.942424,-444.123565,1608.800546,10288.862594
29053.942753,-3182.885551,-153.219100,9326.594869
29053.943082,-3182.885551,-1762.019645,9178.553681
29053.943410,-2072.576638,-1608.800546,9474.636058
29053.943739,-1406.391290,-383.047749,10140.821405
29053.944068,-518.144159,-306.438199,9770.718434
29053.944396,592.164754,-306.438199,8956.491898
29053.944725,1036.288319,612.876398,8142.265362
29053.945053,814.226536,1225.752797,7476.080014
29053.945382,0.000000,1455.581446,9252.574275
29053.945711,-1702.473667,1838.629195,10362.883188
29053.946039,-370.102971,1149.143247,10214.842000
29053.946368,1036.288319,76.609550,10584.944971
29053.946697,148.041188,76.609550,10288.862594
29053.947025,1184.329507,1455.581446,8808.450710
29053.947354,3108.864956,1991.848295,9252.574275
29053.947683,2886.803174,2068.457845,9474.636058
29053.948011,1406.391290,1915.238745,7402.059420
29053.948340,0.000000,1455.581446,6735.874072
29053.948669,-1332.370696,1225.752797,7846.182985
29053.948997,-3034.844362,1225.752797,9622.677246
29053.949326,-3997.112087,-383.047749,11621.233289
29053.949655,-4737.318029,-2451.505594,10732.986159
29053.949983,-3330.926739,-3294.210641,8586.388927
29053.950312,0.000000,-2068.457845,9474.636058
29053.950641,222.061783,1455.581446,10140.821405
29053.950969,222.061783,2451.505594,8586.388927
29053.951298,1702.473667,0.000000,8142.265362
29053.951627,1924.535449,-459.657299,9474.636058
29053.951955,1036.288319,1915.238745,10436.903782
29053.952284,148.041188,2528.115143,9622.677246
29053.952613,222.061783,153.219100,10288.862594
29053.952941,-296.082377,-2221.676944,10881.027347
29053.953270,148.041188,-919.314598,11103.089130
29053.953599,2072.576638,842.705048,10881.027347
29053.953927,3404.947333,1378.971896,8956.491898
29053.954256,4441.235652,229.828649,8216.285956
29053.954585,3034.844362,1072.533697,8956.491898
29053.954913,1628.453072,3217.601092,8808.450710
29053.955242,0.000000,2298.286494,8808.450710
29053.955571,-1406.391290,-1072.533697,7920.203579
29053.955899,-2960.823768,-2834.553343,8512.368333
29053.956228,-4293.194464,0.000000,8660.409521
29053.956557,-2590.720797,1149.143247,9622.677246
29053.956885,-888.247130,-383.047749,9474.636058
29053.957214,222.061783,-2451.505594,8438.347739
29053.957543,74.020594,-383.047749,8216.285956
29053.957871,-222.061783,2757.943793,6291.750507
29053.958200,222.061783,2604.724693,8142.265362
29053.958529,-148.041188,229.828649,9622.677246
29053.958857,-1776.494261,229.828649,10436.903782
29053.959186,-1406.391290,229.828649,10436.903782
29053.959514,0.000000,-536.266849,9992.780217
29053.959843,1110.308913,-459.657299,10066.800811
29053.960172,1480.411884,689.485948,10881.027347
29053.960500,2368.659014,2528.115143,8956.491898
29053.960829,2368.659014,1762.019645,6661.853478
29053.961158,1628.453072,1149.143247,7105.977043
29053.961486,888.247130,1608.800546,8068.244768
29053.961815,-1332.370696,3830.477490,9474.636058
29053.962144,-370.102971,2068.457845,9844.739029
29053.962472,370.102971,-612.876398,10955.047942
29053.962801,-592.164754,-1378.971896,11473.192101
29053.963130,0.000000,1685.410096,10362.883188
29053.963458,2738.761985,842.705048,9252.574275
29053.963787,3478.967927,-383.047749,9178.553681
29053.964116,1184.329507,612.876398,9030.512492
29053.964444,888.247130,2221.676944,7476.080014
29053.964773,370.102971,3370.820191,9030.512492
29053.965102,-1702.473667,842.705048,9548.656652
29053.965430,-2812.782580,-766.095498,11399.171507
29053.965759,-3182.885551,-995.924147,10140.821405
29053.966088,-2146.597232,-766.095498,9844.739029
29053.966416,-962.267725,-995.924147,10362.883188
29053.966745,-296.082377,0.000000,9252.574275
29053.967074,222.061783,459.657299,8068.244768
29053.967402,740.205942,612.876398,7105.977043
29053.967731,444.123565,1072.533697,8364.327145
29053.968060,-222.061783,2068.457845,8956.491898
29053.968388,-2072.576638,2145.067394,9770.718434
29053.968717,-2442.679609,-229.828649,9326.594869
29053.969046,-2294.638420,-1991.848295,8660.409521
29053.969374,-370.102971,-1838.629195,9326.594869
29053.969703,1184.329507,229.828649,11177.109724
29053.970032,1998.556043,1378.971896,9770.718434
29053.970360,3108.864956,536.266849,8956.491898
29053.970689,2664.741391,689.485948,9622.677246
29053.971018,518.144159,1455.581446,7920.203579
29053.971346,-592.164754,1225.752797,7179.997637
29053.971675,-666.185348,153.219100,9474.636058
29053.972004,-1480.411884,-306.438199,11473.192101
29053.972332,-2738.761985,766.095498,11325.150913
29053.972661,-2294.638420,-1225.752797,10066.800811
29053.972990,-444.123565,-2451.505594,8216.285956
29053.973318,1110.308913,-766.095498,8068.244768
29053.973647,1924.535449,2987.772442,9400.615463
29053.973975,1110.308913,4596.572988,8068.244768
29053.974304,666.185348,2757.943793,7031.956449
29053.974633,-296.082377,-766.095498,9030.512492
29053.974961,-2960.823768,306.438199,10658.965565
29053.975290,-2960.823768,2374.896044,10584.944971
29053.975619,-740.205942,306.438199,10066.800811
29053.975947,370.102971,-2451.505594,10066.800811
29053.976276,296.082377,-2145.067394,10288.862594
29053.976605,1332.370696,1762.019645,7550.100608
29053.976933,2516.700203,1685.410096,7476.080014
29053.977262,1776.494261,995.924147,7105.977043
29053.977591,962.267725,1838.629195,9104.533087
29053.977919,518.144159,3983.696590,10066.800811
29053.978248,148.041188,2757.943793,9622.677246
29053.978577,-296.082377,-919.314598,9548.656652
29053.978905,-518.144159,-2528.115143,10807.006753
29053.979234,-222.061783,229.828649,9474.636058
29053.979563,2812.782580,1532.190996,9474.636058
29053.979891,4441.235652,-306.438199,10140.821405
29053.980220,2072.576638,-536.266849,9474.636058
29053.980549,-370.102971,995.924147,8364.327145
29053.980877,-296.082377,842.705048,7772.162391
29053.981206,0.000000,-383.047749,9474.636058
29053.981534,-1628.453072,-536.266849,11547.212695
29053.981863,-2516.700203,-459.657299,10955.047942
29053.982192,-1702.473667,-1302.362347,9622.677246
29053.982520,518.144159,-1915.238745,10732.986159
29053.982849,1924.535449,-766.095498,10584.944971
29053.983177,1924.535449,1378.971896,7846.182985
29053.983506,3182.885551,1991.848295,6439.791695
29053.983835,1554.432478,2068.457845,7476.080014
29053.984163,-518.144159,2221.676944,8290.306550
29053.984492,-2146.597232,1915.238745,8808.450710
29053.984821,-2442.679609,-306.438199,9178.553681
29053.985149,-2812.782580,-1685.410096,9548.656652
29053.985478,-2590.720797,-2451.505594,10214.842000
29053.985806,-592.164754,-536.266849,10362.883188
29053.986135,370.102971,1149.143247,9178.553681
29053.986464,1702.473667,689.485948,7550.100608
29053.986792,2368.659014,229.828649,7772.162391
29053.987121,0.000000,2145.067394,7698.141797
29053.987449,-1480.411884,3294.210641,9696.697840
29053.987778,-2442.679609,919.314598,10066.800811
29053.988107,-3627.009116,-2528.115143,9548.656652
29053.988435,-3330.926739,-3217.601092,11103.089130
29053.988764,-2368.659014,-1532.190996,10881.027347
29053.989093,-518.144159,383.047749,9770.718434
29053.989421,2220.617826,0.000000,9770.718434
29053.989750,2220.617826,0.000000,9252.574275
29053.990078,1258.350101,1455.581446,7550.100608
29053.990407,1258.350101,3983.696590,6735.874072
29053.990736,2294.638420,3600.648841,9474.636058
29053.991064,-592.164754,1762.019645,10658.965565
29053.991393,-2960.823768,0.000000,10436.903782
29053.991721,-1406.391290,-1915.238745,8438.347739
29053.992050,222.061783,-1991.848295,10362.883188
29053.992379,-666.185348,-383.047749,12213.398043
29053.992707,222.061783,842.705048,9770.718434
29053.993036,2368.659014,0.000000,7328.038826
29053.993365,1628.453072,153.219100,7920.203579
29053.993693,296.082377,2451.505594,7698.141797
29053.994022,-370.102971,4673.182538,8660.409521
29053.994350,-1554.432478,3524.039291,9844.739029
29053.994679,-1258.350101,-536.266849,9030.512492
29053.995008,-962.267725,-3140.991542,10214.842000
29053.995336,-1110.308913,-459.657299,10955.047942
29053.995665,444.123565,2221.676944,9548.656652
29053.995993,3182.885551,76.609550,9400.615463
29053.996322,2368.659014,-1378.971896,9252.574275
29053.996651,222.061783,995.924147,7179.997637
29053.996979,-296.082377,3524.039291,6439.791695
29053.997308,0.000000,2604.724693,8364.327145
29053.997637,-1554.432478,536.266849,10140.821405
29053.997965,-2516.700203,-612.876398,11325.150913
29053.998294,-962.267725,-612.876398,9252.574275
29053.998622,1258.350101,-459.657299,9400.615463
29053.998951,2886.803174,229.828649,10066.800811
29053.999280,3478.967927,1685.410096,9400.615463
29053.999608,3108.864956,3370.820191,7846.182985
29053.999937,3478.967927,2068.457845,7698.141797
29054.000266,1628.453072,689.485948,7772.162391
29054.000594,-1406.391290,1838.629195,9622.677246
29054.000923,-2368.659014,1455.581446,10436.903782
29054.001251,-2960.823768,-842.705048,9918.759623
29054.001580,-3775.050304,-3524.039291,10732.986159
29054.001909,-1480.411884,-4366.744339,11251.130318
29054.002237,-296.082377,-459.657299,10066.800811
29054.002566,1702.473667,1455.581446,8882.471304
29054.002894,2516.700203,612.876398,8364.327145
29054.003223,888.247130,1072.533697,8512.368333
29054.003552,-222.061783,2604.724693,8438.347739
29054.003880,-148.041188,2987.772442,9104.533087
29054.004209,-1258.350101,1072.533697,10436.903782
29054.004538,-2368.659014,-612.876398,10658.965565
29054.004866,-1406.391290,-1532.190996,9918.759623
29054.005195,-518.144159,-1532.190996,10140.821405
29054.005523,518.144159,-1149.143247,9622.677246
29054.005852,1628.453072,-153.219100,9474.636058
29054.006181,1036.288319,1608.800546,8808.450710
29054.006509,518.144159,2374.896044,6957.935855
29054.006838,222.061783,1608.800546,7920.203579
29054.007166,-1850.514855,536.266849,9918.759623
29054.007495,-3034.844362,383.047749,10214.842000
29054.007824,-2664.741391,-995.924147,9474.636058
29054.008152,-1554.432478,-2068.457845,9918.759623
29054.008481,-222.061783,-1149.143247,10658.965565
29054.008810,1258.350101,1072.533697,9844.739029
29054.009138,1924.535449,1072.533697,8512.368333
29054.009467,1998.556043,-306.438199,7031.956449
29054.009795,1702.473667,1302.362347,7550.100608
29054.010124,1036.288319,3064.381992,8364.327145
29054.010453,148.041188,3907.087040,8512.368333
29054.010781,-1258.350101,919.314598,10362.883188
29054.011110,-1036.288319,-1532.190996,11843.295072
29054.011438,-888.247130,-995.924147,10288.862594
29054.011767,1554.432478,-995.924147,9252.574275
29054.012096,3182.885551,-766.095498,9400.615463
29054.012424,2368.659014,153.219100,8956.491898
29054.012753,-222.061783,1302.362347,7772.162391
29054.013082,-222.061783,995.924147,7328.038826
29054.013410,-1554.432478,1149.143247,8956.491898
29054.013739,-2220.617826,1072.533697,9918.759623
29054.014067,-1332.370696,383.047749,9770.718434
29054.014396,-2146.597232,-536.266849,10140.821405
29054.014725,-1184.329507,-1072.533697,10584.944971
29054.015053,666.185348,-459.657299,9696.697840
29054.015382,2738.761985,766.095498,10140.821405
29054.015710,1554.432478,1762.019645,8438.347739
29054.016039,1332.370696,1149.143247,7698.141797
29054.016368,740.205942,842.705048,8734.430116
29054.016696,-1184.329507,2145.067394,9696.697840
29054.017025,-2294.638420,1378.971896,10066.800811
29054.017354,-2368.659014,-1149.143247,9474.636058
29054.017682,-2294.638420,-1762.019645,10214.842000
29054.018011,-1110.308913,-842.705048,11029.068536
29054.018339,222.061783,842.705048,10140.821405
29054.018668,2368.659014,612.876398,7920.203579
29054.018997,4071.132681,229.828649,7105.977043
29054.019325,1924.535449,2757.943793,7179.997637
29054.019654,740.205942,3524.039291,7994.224174
29054.019983,-888.247130,2528.115143,9770.718434
29054.020311,-1406.391290,-383.047749,10807.006753
29054.020640,-2738.761985,-2221.676944,11399.171507
29054.020968,-2738.761985,-1838.629195,10288.862594
29054.021297,370.102971,-1302.362347,10140.821405
29054.021626,2886.803174,-1225.752797,9400.615463
29054.021954,2590.720797,766.095498,9474.636058
29054.022283,1924.535449,3140.991542,8660.409521
29054.022611,2368.659014,4366.744339,7031.956449
29054.022940,2368.659014,2911.162892,8142.265362
29054.023269,148.041188,1608.800546,8956.491898
29054.023597,-2738.761985,1532.190996,9252.574275
29054.023926,-2368.659014,-229.828649,9400.615463
29054.024255,-1924.535449,-1072.533697,10214.842000
29054.024583,-888.247130,-1149.143247,10732.986159
29054.024912,0.000000,-919.314598,9474.636058
29054.025240,1406.391290,0.000000,7402.059420
29054.025569,962.267725,689.485948,7772.162391
29054.025898,1184.329507,612.876398,7846.182985
29054.026226,740.205942,1991.848295,9178.553681
29054.026555,-518.144159,2374.896044,9918.759623
29054.026883,-814.226536,1225.752797,9400.615463
29054.027212,-1258.350101,-1225.752797,10584.944971
29054.027541,-962.267725,-1149.143247,9918.759623
29054.027869,370.102971,1455.581446,10066.800811
29054.028198,2590.720797,689.485948,9030.512492
29054.028527,3034.844362,0.000000,7698.141797
29054.028855,592.164754,536.266849,6439.791695
29054.029184,-962.267725,2145.067394,7698.141797
29054.029512,-2442.679609,1915.238745,7772.162391
29054.029841,-2738.761985,-689.485948,9400.615463
29054.030170,-3034.844362,-2451.505594,11251.130318
29054.030498,-3404.947333,-2145.067394,10732.986159
29054.030827,-2072.576638,-1302.362347,10732.986159
29054.031155,888.247130,-1838.629195,10214.842000
29054.031484,2442.679609,-919.314598,10732.986159
29054.031813,3182.885551,76.609550,8364.327145
29054.032141,3404.947333,2298.286494,8364.327145
29054.032470,2442.679609,2834.553343,9326.594869
29054.032799,0.000000,2374.896044,9474.636058
29054.033127,-1702.473667,-919.314598,9326.594869
29054.033456,-2368.659014,-1915.238745,9992.780217
29054.033784,-2442.679609,-306.438199,10955.047942
29054.034113,-1702.473667,-383.047749,11473.192101
29054.034442,-740.205942,-1072.533697,10955.047942
29054.034770,1036.288319,-2298.286494,7772.162391
29054.035099,2516.700203,-1072.533697,7328.038826
29054.035427,1850.514855,2757.943793,6809.894666
29054.035756,148.041188,5286.058936,6365.771101
29054.036085,0.000000,3600.648841,8068.244768
29054.036413,-1110.308913,-536.266849,9844.739029
29054.036742,-2442.679609,-1302.362347,10140.821405
29054.037071,-2442.679609,-689.485948,9844.739029
29054.037399,0.000000,-459.657299,10732.986159
29054.037728,2812.782580,0.000000,10881.027347
29054.038056,4219.173869,1685.410096,10807.006753
29054.038385,4515.256246,2757.943793,8068.244768
29054.038714,2368.659014,2604.724693,6587.832884
29054.039042,2072.576638,3294.210641,7179.997637
29054.039371,1110.308913,4366.744339,9696.697840
29054.039700,-1110.308913,2681.334243,10140.821405
29054.040028,-2960.823768,-919.314598,9178.553681
29054.040357,-2960.823768,-3064.381992,10732.986159
29054.040685,-2368.659014,-2681.334243,10066.800811
29054.041014,-1258.350101,0.000000,10214.842000
29054.041343,1110.308913,-689.485948,9104.533087
29054.041671,1480.411884,0.000000,8438.347739
29054.042000,888.247130,1991.848295,7698.141797
29054.042328,444.123565,3753.867940,8142.265362
29054.042657,518.144159,3907.087040,9474.636058
29054.042986,-814.226536,1685.410096,8956.491898
29054.043314,-666.185348,383.047749,10436.903782
29054.043643,-592.164754,0.000000,10881.027347
29054.043972,74.020594,1072.533697,10658.965565
29054.044300,2516.700203,459.657299,9844.739029
29054.044629,1776.494261,76.609550,9252.574275
29054.044957,148.041188,1072.533697,7031.956449
29054.045286,222.061783,842.705048,6513.812290
29054.045615,-814.226536,1225.752797,8068.244768
29054.045943,-2516.700203,919.314598,9844.739029
29054.046272,-3701.029710,-229.828649,9992.780217
29054.046600,-4515.256246,-612.876398,10807.006753
29054.046929,-2886.803174,-2451.505594,10584.944971
29054.047258,666.185348,-3140.991542,9770.718434
29054.047586,1924.535449,-612.876398,9992.780217
29054.047915,2072.576638,2298.286494,9178.553681
29054.048244,2368.659014,1915.238745,7105.977043
29054.048572,2442.679609,306.438199,8364.327145
29054.048901,444.123565,1225.752797,9770.718434
29054.049229,-1776.494261,2374.896044,9696.697840
29054.049558,-1554.432478,-1149.143247,9770.718434
29054.049887,-1480.411884,-2451.505594,10288.862594
29054.050215,-1850.514855,-3064.381992,11473.192101
29054.050544,0.000000,-1991.848295,10510.924376
29054.050872,2072.576638,-1149.143247,8438.347739
29054.051201,3182.885551,-1302.362347,7994.224174
29054.051530,2146.597232,1072.533697,7179.997637
29054.051858,1110.308913,2987.772442,7476.080014
29054.052187,592.164754,2834.553343,8438.347739
29054.052516,-666.185348,-459.657299,9844.739029
29054.052844,-1850.514855,-2298.286494,10214.842000
29054.053173,-2294.638420,-1149.143247,9770.718434
29054.053501,-1332.370696,-1762.019645,9622.677246
29054.053830,148.041188,-2145.067394,10584.944971
29054.054159,1998.556043,-612.876398,9918.759623
29054.054487,3182.885551,1149.143247,8586.388927
29054.054816,2146.597232,2987.772442,6661.853478
29054.055144,1554.432478,2374.896044,6513.812290
29054.055473,888.247130,2451.505594,8882.471304
29054.055802,-1184.329507,2834.553343,11177.109724
29054.056130,-3330.926739,229.828649,11103.089130
29054.056459,-3256.906145,-3064.381992,10658.965565
29054.056788,-1702.473667,-2987.772442,10955.047942
29054.057116,-296.082377,-459.657299,10658.965565
29054.057445,74.020594,1149.143247,9400.615463
29054.057773,370.102971,842.705048,8364.327145
29054.058102,444.123565,612.876398,7550.100608
29054.058431,444.123565,2298.286494,9178.553681
29054.058759,-592.164754,4213.525239,8364.327145
29054.059088,-962.267725,2451.505594,8586.388927
29054.059417,-1258.350101,0.000000,9770.718434
29054.059745,-1332.370696,153.219100,11103.089130
29054.060074,222.061783,766.095498,11325.150913
29054.060402,2442.679609,383.047749,9844.739029
29054.060731,2294.638420,-383.047749,9030.512492
29054.061060,1480.411884,995.924147,7624.121203
29054.061388,518.144159,1838.629195,7031.956449
29054.061717,962.267725,1762.019645,8216.285956
29054.062045,-518.144159,536.266849,9696.697840
29054.062374,-2368.659014,612.876398,10288.862594
29054.062703,-2516.700203,536.266849,12435.459826
29054.063031,-1184.329507,-1149.143247,10214.842000
29054.063360,1184.329507,-2221.676944,8438.347739
29054.063689,2220.617826,-1149.143247,8808.450710
29054.064017,3256.906145,2757.943793,7772.162391
29054.064346,3775.050304,4673.182538,7105.977043
29054.064674,3330.926739,3370.820191,7994.224174
29054.065003,2072.576638,1838.629195,8364.327145
29054.065332,-1480.411884,1072.533697,8956.491898
29054.065660,-1998.556043,-459.657299,8290.306550
29054.065989,-2146.597232,-1991.848295,10807.006753
29054.066317,-1998.556043,-1762.019645,12657.521608
29054.066646,0.000000,-1608.800546,12139.377449
29054.066975,962.267725,-919.314598,9844.739029
29054.067303,1776.494261,-306.438199,8438.347739
29054.067632,2220.617826,1225.752797,7772.162391
29054.067961,814.226536,3370.820191,7105.977043
29054.068289,-518.144159,3983.696590,7772.162391
29054.068618,-1628.453072,1072.533697,8660.409521
29054.068946,-3034.844362,-1302.362347,9622.677246
29054.069275,-4885.359217,-1225.752797,10140.821405
29054.069604,-5033.400406,-1762.019645,10214.842000
29054.069932,-2146.597232,-2604.724693,10140.821405
29054.070261,740.205942,-3600.648841,9400.615463
29054.070589,1184.329507,-689.485948,10214.842000
29054.070918,962.267725,3370.820191,8660.409521
29054.071247,1406.391290,3753.867940,6365.771101
29054.071575,1480.411884,1072.533697,7920.203579
29054.071904,-444.123565,689.485948,10362.883188
29054.072233,-1258.350101,2451.505594,10658.965565
29054.072561,-444.123565,1532.190996,11695.253884
29054.072890,518.144159,-2451.505594,11325.150913
29054.073218,592.164754,-2298.286494,10436.903782
29054.073547,1924.535449,229.828649,9474.636058
29054.073876,2812.782580,1532.190996,8512.368333
29054.074204,2072.576638,1532.190996,8512.368333
29054.074533,222.061783,1149.143247,8660.409521
29054.074862,-592.164754,1685.410096,8956.491898
29054.075190,-1998.556043,995.924147,8734.430116
29054.075519,-1850.514855,-689.485948,9104.533087
29054.075847,-2072.576638,-1762.019645,10214.842000
29054.076176,-1924.535449,-995.924147,10658.965565
29054.076505,296.082377,-766.095498,10362.883188
29054.076833,3330.926739,-1762.019645,10066.800811
29054.077162,2738.761985,-306.438199,7772.162391
29054.077490,1998.556043,1532.190996,7105.977043
29054.077819,2664.741391,2911.162892,7476.080014
29054.078148,1702.473667,2987.772442,9770.718434
29054.078476,-592.164754,1685.410096,10066.800811
29054.078805,-666.185348,0.000000,9474.636058
29054.079134,-1184.329507,-1532.190996,9548.656652
29054.079462,518.144159,-612.876398,10362.883188
29054.079791,1702.473667,0.000000,10658.965565
29054.080120,1480.411884,153.219100,9326.594869
29054.080448,1110.308913,306.438199,7402.059420
29054.080777,1110.308913,612.876398,6957.935855
29054.081106,222.061783,2604.724693,8364.327145
29054.081434,-740.205942,3217.601092,8734.430116
29054.081763,-1850.514855,383.047749,9178.553681
29054.082092,-3330.926739,-1149.143247,10658.965565
29054.082420,-2220.617826,-1762.019645,10140.821405
29054.082749,0.000000,-536.266849,9918.759623
29054.083078,1480.411884,689.485948,10362.883188
29054.083406,2294.638420,842.705048,9030.512492
29054.083735,3701.029710,1072.533697,7772.162391
29054.084064,1850.514855,2298.286494,9104.533087
29054.084392,0.000000,3140.991542,9474.636058
29054.084721,-1110.308913,1915.238745,9548.656652
29054.085050,-740.205942,-842.705048,9622.677246
29054.085378,-2442.679609,-919.314598,10140.821405
29054.085707,-3849.070898,-995.924147,10584.944971
29054.086036,-1406.391290,-995.924147,10140.821405
29054.086364,0.000000,-1225.752797,9548.656652
29054.086693,74.020594,-1072.533697,9030.512492
29054.087022,-444.123565,612.876398,7772.162391
29054.087350,0.000000,3217.601092,7105.977043
29054.087679,222.061783,3140.991542,8956.491898
29054.088008,-1110.308913,1455.581446,9918.759623
29054.088336,-2960.823768,-1149.143247,9548.656652
29054.088665,-2368.659014,-689.485948,10362.883188
29054.088994,0.000000,-306.438199,10584.944971
29054.089322,740.205942,-1378.971896,10362.883188
29054.089651,888.247130,-1608.800546,9622.677246
29054.089980,2368.659014,536.266849,8512.368333
29054.090308,2960.823768,3294.210641,8586.388927
29054.090637,2886.803174,2068.457845,7105.977043
29054.090966,1332.370696,1072.533697,8216.285956
29054.091294,-962.267725,1915.238745,8882.471304
29054.091623,0.000000,2068.457845,9770.718434
29054.091952,0.000000,-612.876398,10214.842000
29054.092280,-1924.535449,-1532.190996,10584.944971
29054.092609,0.000000,-1608.800546,9918.759623
29054.092938,2146.597232,-229.828649,8512.368333
29054.093266,1554.432478,229.828649,8956.491898
29054.093595,-296.082377,1225.752797,7402.059420
29054.093924,-222.061783,1378.971896,7105.977043
29054.094252,0.000000,1532.190996,8438.347739
29054.094581,-1628.453072,1685.410096,9622.677246
29054.094910,-1406.391290,995.924147,9770.718434
29054.095238,-1480.411884,0.000000,9770.718434
29054.095567,148.041188,-459.657299,9104.533087
29054.095896,2812.782580,76.609550,11251.130318
29054.096224,2442.679609,1608.800546,10955.047942
29054.096553,1184.329507,1455.581446,7920.203579
29054.096882,1258.350101,612.876398,7698.141797
29054.097210,-296.082377,612.876398,9104.533087
29054.097539,-2812.782580,3217.601092,10066.800811
29054.097868,-3404.947333,229.828649,9474.636058
29054.098196,-4367.215058,-2528.115143,10658.965565
29054.098525,-3923.091493,-2528.115143,10584.944971
29054.098854,-2516.700203,153.219100,10288.862594
29054.099183,0.000000,536.266849,8734.430116
29054.099511,2146.597232,-459.657299,7772.162391
29054.099840,2590.720797,1225.752797,7476.080014
29054.100169,1628.453072,3294.210641,8512.368333
29054.100497,1332.370696,3753.867940,8734.430116
29054.100826,962.267725,1532.190996,9326.594869
29054.101155,888.247130,-536.266849,10214.842000
29054.101483,0.000000,-919.314598,10140.821405
29054.101812,-1036.288319,-766.095498,10881.027347
29054.102141,1702.473667,-536.266849,10807.006753
29054.102469,3182.885551,-1225.752797,9696.697840
29054.102798,3182.885551,-612.876398,8438.347739
29054.103127,2738.761985,1455.581446,7550.100608
29054.103455,1480.411884,3370.820191,8142.265362
29054.103784,2146.597232,2451.505594,8512.368333
29054.104113,518.144159,1378.971896,10140.821405
29054.104441,-2368.659014,0.000000,9992.780217
29054.104770,-1702.473667,-306.438199,9178.553681
29054.105099,-1332.370696,-689.485948,9770.718434
29054.105427,-444.123565,-1991.848295,10881.027347
29054.105756,74.020594,-1378.971896,9326.594869
29054.106085,296.082377,-383.047749,7328.038826
29054.106413,592.164754,995.924147,8142.265362
29054.106742,222.061783,919.314598,7698.141797
29054.107071,-740.205942,1762.019645,9474.636058
29054.107399,-1554.432478,1991.848295,10288.862594
29054.107728,-1480.411884,306.438199,9770.718434
29054.108057,-962.267725,-1225.752797,9474.636058
29054.108385,-1480.411884,-766.095498,9548.656652
29054.108714,-962.267725,2145.067394,8882.471304
29054.109043,1554.432478,1532.190996,8660.409521
29054.109371,3478.967927,383.047749,8142.265362
29054.109700,1998.556043,1532.190996,7254.018232
29054.110029,740.205942,3600.648841,8364.327145
29054.110357,666.185348,3600.648841,9252.574275
29054.110686,-666.185348,842.705048,10362.883188
29054.111015,-3404.947333,-2145.067394,11103.089130
29054.111343,-4293.194464,-1838.629195,10510.924376
29054.111672,-1554.432478,-1532.190996,9474.636058
29054.112001,370.102971,-1072.533697,11251.130318
29054.112329,-518.144159,-1149.143247,10436.903782
29054.112658,-592.164754,229.828649,8068.244768
29054.112987,888.247130,766.095498,7254.018232
29054.113315,148.041188,1225.752797,9548.656652
29054.113644,-1776.494261,1455.581446,10140.821405
29054.113973,-2886.803174,229.828649,10510.924376
29054.114301,-2812.782580,-1762.019645,10658.965565
29054.114630,-2960.823768,-2528.115143,11103.089130
29054.114959,-1258.350101,-1532.190996,11473.192101
29054.115287,74.020594,536.266849,9992.780217
29054.115616,1998.556043,229.828649,7476.080014
29054.115945,3552.988522,153.219100,7550.100608
29054.116273,2146.597232,3140.991542,9030.512492
29054.116602,1554.432478,5286.058936,8216.285956
29054.116931,2146.597232,2757.943793,7402.059420
29054.117259,1036.288319,-536.266849,8808.450710
29054.117588,-814.226536,-229.828649,9326.594869
29054.117917,-962.267725,2298.286494,9252.574275
29054.118245,888.247130,1072.533697,10066.800811
29054.118574,1406.391290,-1532.190996,9400.615463
29054.118903,1628.453072,-306.438199,9104.533087
29054.119231,2072.576638,2451.505594,7994.224174
29054.119560,1184.329507,4366.744339,6217.729913
29054.119889,-740.205942,2451.505594,7105.977043
29054.120217,-1850.514855,229.828649,8808.450710
29054.120546,-2146.597232,689.485948,9030.512492
29054.120875,-3108.864956,919.314598,10288.862594
29054.121203,-2368.659014,-1072.533697,10362.883188
29054.121532,-1258.350101,-2604.724693,9770.718434
29054.121861,148.041188,-1455.581446,9992.780217
29054.122189,2368.659014,689.485948,10066.800811
29054.122518,2442.679609,842.705048,8734.430116
29054.122847,1998.556043,1455.581446,8216.285956
29054.123175,2368.659014,2528.115143,9474.636058
29054.123504,740.205942,2757.943793,10658.965565
29054.123833,518.144159,1072.533697,10807.006753
29054.124161,1110.308913,-689.485948,11473.192101
29054.124490,296.082377,-919.314598,11843.295072
29054.124819,1480.411884,919.314598,10807.006753
29054.125147,3404.947333,1149.143247,9992.780217
29054.125476,2664.741391,306.438199,9252.574275
29054.125805,740.205942,1149.143247,7031.956449
29054.126133,0.000000,1225.752797,5773.606348
29054.126462,-962.267725,1532.190996,7772.162391
29054.126791,-2960.823768,1608.800546,9696.697840
29054.127119,-4441.235652,153.219100,10658.965565
29054.127448,-5625.565159,-2451.505594,10214.842000
29054.127777,-4885.359217,-3294.210641,8660.409521
29054.128105,-1554.432478,-2987.772442,9252.574275
29054.128434,666.185348,-689.485948,10288.862594
29054.128763,888.247130,2757.943793,8364.327145
29054.129091,740.205942,1838.629195,7772.162391
29054.129420,962.267725,536.266849,8364.327145
29054.129749,592.164754,919.314598,8956.491898
29054.130077,-1110.308913,1991.848295,9548.656652
29054.130406,-1406.391290,536.266849,10881.027347
29054.130735,-962.267725,-1762.019645,10436.903782
29054.131063,370.102971,-1838.629195,11103.089130
29054.131392,1702.473667,-383.047749,11029.068536
29054.131721,2072.576638,229.828649,9770.718434
29054.132049,2812.782580,383.047749,8142.265362
29054.132378,2590.720797,1149.143247,8290.306550
29054.132707,1036.288319,2528.115143,8660.409521
29054.133035,0.000000,2451.505594,8734.430116
29054.133364,-1110.308913,459.657299,8438.347739
29054.133693,-2294.638420,-1072.533697,8808.450710
29054.134021,-4515.256246,-995.924147,9844.739029
29054.134350,-2442.679609,-612.876398,9844.739029
29054.134679,-444.123565,-1991.848295,9030.512492
29054.135007,444.123565,-1378.971896,8882.471304
29054.135336,370.102971,1149.143247,8364.327145
29054.135665,0.000000,3140.991542,7105.977043
29054.135993,370.102971,2681.334243,7254.018232
29054.136322,814.226536,919.314598,8586.388927
29054.136651,-1480.411884,919.314598,9548.656652
29054.136979,-1480.411884,2068.457845,11177.109724
29054.137308,296.082377,1378.971896,10436.903782
29054.137637,1332.370696,-612.876398,10732.986159
29054.137965,2220.617826,-995.924147,9252.574275
29054.138294,3404.947333,1072.533697,8216.285956
29054.138623,3701.029710,3217.601092,8364.327145
29054.138951,2590.720797,3217.601092,8808.450710
29054.139280,1480.411884,2145.067394,10214.842000
29054.139609,518.144159,766.095498,10658.965565
29054.139937,-1406.391290,1149.143247,11177.109724
29054.140266,-2072.576638,-1149.143247,11399.171507
29054.140595,-1850.514855,-2451.505594,9548.656652
29054.140923,-740.205942,-229.828649,9326.594869
29054.141252,1702.473667,229.828649,10066.800811
29054.141581,2442.679609,153.219100,7328.038826
29054.141909,1628.453072,229.828649,5921.647536
29054.142238,0.000000,1915.238745,6661.853478
29054.142567,-370.102971,2451.505594,7550.100608
29054.142895,-296.082377,1302.362347,8660.409521
29054.143224,-1480.411884,-1532.190996,10436.903782
29054.143553,-2738.761985,-919.314598,11473.192101
29054.143881,-1406.391290,-1378.971896,11103.089130
29054.144210,1184.329507,-1991.848295,11251.130318
29054.144539,2368.659014,-1915.238745,10362.883188
29054.144867,2220.617826,306.438199,7550.100608
29054.145196,2368.659014,2987.772442,7402.059420
29054.145525,3034.844362,3140.991542,8808.450710
29054.145853,666.185348,3064.381992,8808.450710
29054.146182,-740.205942,689.485948,7772.162391
29054.146511,-1110.308913,-842.705048,8882.471304
29054.146839,-2294.638420,-306.438199,11029.068536
29054.147168,-1850.514855,766.095498,11695.253884
29054.147497,-666.185348,-766.095498,10140.821405
29054.147825,-740.205942,-3370.820191,8438.347739
29054.148154,-296.082377,-1302.362347,7402.059420
29054.148483,1110.308913,2757.943793,7476.080014
29054.148811,-148.041188,4213.525239,9474.636058
29054.149140,-2368.659014,1072.533697,9030.512492
29054.149469,-2960.823768,-1685.410096,8808.450710
29054.149797,-2738.761985,-3140.991542,9622.677246
29054.150126,-3775.050304,76.609550,9400.615463
29054.150455,-1850.514855,153.219100,9622.677246
29054.150783,1332.370696,-995.924147,9918.759623
29054.151112,2590.720797,306.438199,9992.780217
29054.151441,3034.844362,1838.629195,8808.450710
29054.151769,2960.823768,2987.772442,7105.977043
29054.152098,2664.741391,3294.210641,6735.874072
29054.152427,2368.659014,2604.724693,9770.718434
29054.152755,518.144159,2451.505594,11843.295072
29054.153084,-592.164754,383.047749,11029.068536
29054.153413,-1036.288319,-2221.676944,11251.130318
29054.153741,-592.164754,-2681.334243,11251.130318
29054.154070,296.082377,-1608.800546,9918.759623
29054.154399,888.247130,1608.800546,9178.553681
29054.154727,1702.473667,766.095498,9326.594869
29054.155056,1258.350101,1149.143247,7846.182985
29054.155385,-222.061783,2528.115143,7846.182985
29054.155713,-1036.288319,2834.553343,8512.368333
29054.156042,-1924.535449,1915.238745,8364.327145
29054.156371,-1924.535449,76.609550,9696.697840
29054.156699,-2738.761985,-919.314598,10436.903782
29054.157028,-3330.926739,0.000000,9770.718434
29054.157357,-814.226536,-842.705048,9104.533087
29054.157685,1480.411884,-383.047749,8734.430116
29054.158014,296.082377,536.266849,8364.327145
29054.158343,-592.164754,1685.410096,7179.997637
29054.158671,0.000000,2451.505594,8512.368333
29054.159000,-296.082377,1991.848295,9918.759623
29054.159329,-666.185348,612.876398,9326.594869
29054.159657,-1036.288319,0.000000,9104.533087
29054.159986,-518.144159,1149.143247,10066.800811
29054.160315,2146.597232,919.314598,9474.636058
29054.160644,3182.885551,0.000000,9770.718434
29054.160972,2442.679609,1455.581446,8882.471304
29054.161301,1702.473667,1762.019645,6957.935855
29054.161630,1406.391290,1762.019645,7624.121203
29054.161958,962.267725,766.095498,9548.656652
29054.162287,-2368.659014,153.219100,10288.862594
29054.162616,-3849.070898,-1532.190996,10658.965565
29054.162944,-3478.967927,-2681.334243,10881.027347
29054.163273,-2664.741391,-1685.410096,10881.027347
29054.163602,-1406.391290,-1608.800546,10436.903782
29054.163930,666.185348,-689.485948,7920.203579
29054.164259,2072.576638,842.705048,7179.997637
29054.164588,3108.864956,2987.772442,8364.327145
29054.164916,2812.782580,3447.429741,8216.285956
29054.165245,962.267725,2221.676944,8216.285956
29054.165574,518.144159,1302.362347,9918.759623
29054.165902,296.082377,995.924147,11177.109724
29054.166231,-666.185348,1072.533697,10214.842000
29054.166560,0.000000,-2145.067394,9918.759623
29054.166888,1480.411884,-2374.896044,9770.718434
29054.167217,2590.720797,76.609550,9770.718434
29054.167546,3404.947333,2604.724693,9622.677246
29054.167874,1998.556043,2451.505594,7772.162391
29054.168203,74.020594,2145.067394,6957.935855
29054.168532,0.000000,995.924147,8660.409521
29054.168860,-1554.432478,2145.067394,11029.068536
29054.169189,-2812.782580,1302.362347,10140.821405
29054.169518,-3034.844362,-2068.457845,9548.656652
29054.169846,-2664.741391,-3140.991542,10140.821405
29054.170175,-1554.432478,-383.047749,9622.677246
29054.170504,-370.102971,766.095498,8438.347739
29054.170832,-518.144159,-1072.533697,8364.327145
29054.171161,-888.247130,-383.047749,7772.162391
29054.171490,-518.144159,1991.848295,9252.574275
29054.171818,-518.144159,1991.848295,9474.636058
29054.172147,-2738.761985,0.000000,9474.636058
29054.172476,-1554.432478,-689.485948,10584.944971
29054.172804,444.123565,-1838.629195,10584.944971
29054.173133,-444.123565,842.705048,10288.862594
29054.173462,148.041188,842.705048,9400.615463
29054.173790,2812.782580,306.438199,7698.141797
29054.174119,2590.720797,612.876398,6957.935855
29054.174448,222.061783,1838.629195,7698.141797
29054.174776,0.000000,2221.676944,7698.141797
29054.175105,-666.185348,1608.800546,9252.574275
29054.175434,-1850.514855,0.000000,10362.883188
29054.175762,-2442.679609,-1225.752797,10881.027347
29054.176091,-2516.700203,-1225.752797,10066.800811
29054.176420,0.000000,-766.095498,8956.491898
29054.176748,2886.803174,-459.657299,9474.636058
29054.177077,3923.091493,0.000000,7994.224174
29054.177406,2368.659014,2911.162892,7920.203579
29054.177734,1554.432478,3524.039291,8956.491898
29054.178063,1406.391290,1149.143247,8808.450710
29054.178392,-740.205942,-229.828649,9918.759623
29054.178720,-2368.659014,-1149.143247,10658.965565
29054.179049,-1776.494261,229.828649,10362.883188
29054.179378,-2072.576638,-919.314598,10362.883188
29054.179706,-370.102971,-1532.190996,11325.150913
29054.180035,-740.205942,-995.924147,9474.636058
29054.180363,1110.308913,-459.657299,7328.038826
29054.180692,2960.823768,1532.190996,7254.018232
29054.181020,1406.391290,3140.991542,7179.997637
29054.181349,-296.082377,4366.744339,8586.388927
29054.181677,-444.123565,1685.410096,9326.594869
29054.182006,-592.164754,-842.705048,11177.109724
29054.182334,-1036.288319,-1762.019645,10510.924376
29054.182663,-962.267725,-1302.362347,10214.842000
29054.182991,1480.411884,459.657299,10436.903782
29054.183320,4737.318029,1225.752797,10288.862594
29054.183649,5699.585753,1608.800546,9696.697840
29054.183977,4959.379811,2604.724693,8956.491898
29054.184306,2812.782580,4136.915689,7031.956449
29054.184634,2590.720797,3907.087040,8660.409521
29054.184963,-296.082377,2987.772442,11251.130318
29054.185291,-3108.864956,383.047749,9918.759623
29054.185620,-3775.050304,-1838.629195,9918.759623
29054.185948,-3404.947333,-2068.457845,10807.006753
29054.186277,-3775.050304,-1685.410096,9548.656652
29054.186605,-2590.720797,-612.876398,7476.080014
29054.186934,-962.267725,-1302.362347,7031.956449
29054.187262,-1924.535449,689.485948,7254.018232
29054.187591,-1258.350101,2451.505594,6883.915261
29054.187919,-444.123565,2834.553343,8808.450710
29054.188248,-1998.556043,1302.362347,8882.471304
29054.188576,-2368.659014,0.000000,9548.656652
29054.188905,222.061783,-612.876398,10807.006753
29054.189233,814.226536,153.219100,11399.171507
29054.189562,1924.535449,229.828649,10436.903782
29054.189890,4441.235652,229.828649,9474.636058
29054.190219,4959.379811,1072.533697,8364.327145
29054.190547,2368.659014,3140.991542,6957.935855
29054.190876,296.082377,2911.162892,7328.038826
29054.191204,0.000000,1532.190996,8216.285956
29054.191533,-1924.535449,0.000000,10436.903782
29054.191861,-3404.947333,-1302.362347,11325.150913
29054.192190,-3997.112087,-2757.943793,10732.986159
29054.192519,-3182.885551,-3370.820191,9770.718434
29054.192847,-1036.288319,-3294.210641,9696.697840
29054.193176,1110.308913,-1225.752797,10732.986159
29054.193504,592.164754,1225.752797,8290.306550
29054.193833,1036.288319,1302.362347,7772.162391
29054.194161,1850.514855,459.657299,7402.059420
29054.194490,-148.041188,1838.629195,10881.027347
29054.194818,-2590.720797,1302.362347,12287.418637
29054.195147,-814.226536,-689.485948,11621.233289
29054.195475,-370.102971,-2604.724693,11917.315666
29054.195804,1110.308913,-1762.019645,11991.336260
29054.196132,2072.576638,919.314598,9622.677246
29054.196461,3701.029710,1532.190996,7550.100608
29054.196789,4589.276840,1838.629195,7920.203579
29054.197118,3182.885551,2451.505594,6661.853478
29054.197446,814.226536,3983.696590,7920.203579
29054.197775,-740.205942,4519.963438,9030.512492
29054.198103,-2220.617826,995.924147,8734.430116
29054.198432,-3923.091493,-1838.629195,9770.718434
29054.198760,-4589.276840,-3447.429741,8068.244768
29054.199089,-2960.823768,-1378.971896,9622.677246
29054.199417,-592.164754,306.438199,9622.677246
29054.199746,1258.350101,766.095498,8438.347739
29054.200074,740.205942,306.438199,7698.141797
29054.200403,-666.185348,2451.505594,6587.832884
29054.200732,1332.370696,3600.648841,7105.977043
29054.201060,962.267725,2757.943793,9548.656652
29054.201389,-1184.329507,1225.752797,11029.068536
29054.201717,-1554.432478,-1302.362347,10436.903782
29054.202046,-296.082377,-1685.410096,10436.903782
29054.202374,592.164754,-2298.286494,11991.336260
29054.202703,1776.494261,0.000000,10807.006753
29054.203031,2664.741391,766.095498,9474.636058
29054.203360,3404.947333,1608.800546,8438.347739
29054.203688,2146.597232,2145.067394,7476.080014
29054.204017,666.185348,2451.505594,7624.121203
29054.204345,-592.164754,2834.553343,7698.141797
29054.204674,-1998.556043,1838.629195,9474.636058
29054.205002,-1258.350101,-306.438199,12139.377449
29054.205331,-1480.411884,-919.314598,11399.171507
29054.205659,-1184.329507,-1455.581446,9030.512492
29054.205988,1258.350101,-2068.457845,7476.080014
29054.206316,2590.720797,612.876398,7994.224174
29054.206645,1406.391290,2528.115143,7476.080014
29054.206973,1776.494261,2987.772442,6661.853478
29054.207302,740.205942,459.657299,7994.224174
29054.207630,-1332.370696,536.266849,10955.047942
29054.207959,-1998.556043,919.314598,10955.047942
29054.208287,-1332.370696,-229.828649,11029.068536
29054.208616,-148.041188,-2145.067394,11547.212695
29054.208945,1036.288319,-766.095498,11177.109724
29054.209273,1702.473667,0.000000,9104.533087
29054.209602,1628.453072,612.876398,8068.244768
29054.209930,518.144159,766.095498,7105.977043
29054.210259,74.020594,919.314598,8068.244768
29054.210587,-1332.370696,1991.848295,9696.697840
29054.210916,-3108.864956,1608.800546,10362.883188
29054.211244,-3849.070898,-1762.019645,10362.883188
29054.211573,-4219.173869,-3677.258390,9400.615463
29054.211901,-1998.556043,-2451.505594,11399.171507
29054.212230,1110.308913,-229.828649,10362.883188
29054.212558,2368.659014,766.095498,9474.636058
29054.212887,4071.132681,-306.438199,7772.162391
29054.213215,3182.885551,2221.676944,6587.832884
29054.213544,814.226536,3753.867940,7105.977043
29054.213872,-444.123565,4136.915689,8956.491898
29054.214201,-518.144159,689.485948,10066.800811
29054.214529,-2368.659014,-2528.115143,11325.150913
29054.214858,-3923.091493,-2834.553343,10881.027347
29054.215186,-3108.864956,-2145.067394,9770.718434
29054.215515,-370.102971,-1302.362347,9474.636058
29054.215843,666.185348,76.609550,9252.574275
29054.216172,1554.432478,1762.019645,8512.368333
29054.216500,370.102971,3983.696590,6291.750507
29054.216829,1036.288319,3064.381992,5773.606348
29054.217157,518.144159,3524.039291,8068.244768
29054.217486,-1850.514855,3524.039291,9548.656652
29054.217815,-2294.638420,1378.971896,9622.677246
29054.218143,-222.061783,-1991.848295,10658.965565
29054.218472,0.000000,-1685.410096,11251.130318
29054.218800,0.000000,-153.219100,10288.862594
29054.219129,1554.432478,1072.533697,8734.430116
29054.219457,2368.659014,1302.362347,8216.285956
29054.219786,2294.638420,1532.190996,7698.141797
29054.220114,1184.329507,2911.162892,7476.080014
29054.220443,-518.144159,2834.553343,8216.285956
29054.220771,-1702.473667,2451.505594,9548.656652
29054.221100,-1184.329507,0.000000,9918.759623
29054.221428,-1480.411884,-1685.410096,11325.150913
29054.221757,-1184.329507,-1149.143247,11251.130318
29054.222085,1998.556043,-689.485948,9992.780217
29054.222414,3997.112087,-612.876398,10140.821405
29054.222742,2664.741391,1225.752797,9178.553681
29054.223071,1702.473667,2451.505594,8882.471304
29054.223399,2072.576638,2604.724693,9770.718434
29054.223728,1406.391290,1149.143247,10288.862594
29054.224056,296.082377,-995.924147,9844.739029
29054.224385,-1554.432478,-459.657299,10807.006753
29054.224713,-370.102971,919.314598,10584.944971
29054.225042,2072.576638,153.219100,10584.944971
29054.225370,2220.617826,-1685.410096,9918.759623
29054.225699,1924.535449,-1225.752797,8290.306550
29054.226028,1184.329507,689.485948,5773.606348
29054.226356,370.102971,1302.362347,7105.977043
29054.226685,-666.185348,1608.800546,9104.533087
29054.227013,-3108.864956,1532.190996,9326.594869
29054.227342,-3256.906145,-1685.410096,9326.594869
29054.227670,-4293.194464,-3294.210641,9474.636058
29054.227999,-3923.091493,-1991.848295,9844.739029
29054.228327,-814.226536,-766.095498,9918.759623
29054.228656,592.164754,-306.438199,8956.491898
29054.228984,1850.514855,0.000000,8216.285956
29054.229313,2220.617826,842.705048,7846.182985
29054.229641,592.164754,2757.943793,7402.059420
29054.229970,-592.164754,2298.286494,8586.388927
29054.230298,-518.144159,536.266849,10214.842000
29054.230627,-814.226536,-1149.143247,11843.295072
29054.230955,-2220.617826,-1532.190996,11325.150913
29054.231284,-1924.535449,-1685.410096,10807.006753
29054.231612,666.185348,-2451.505594,9622.677246
29054.231941,2368.659014,-842.705048,8882.471304
29054.232269,1110.308913,1685.410096,9326.594869
29054.232598,740.205942,1915.238745,7105.977043
29054.232926,1702.473667,1302.362347,6143.709319
29054.233255,888.247130,1685.410096,8956.491898
29054.233583,-1924.535449,3447.429741,10881.027347
29054.233912,-3108.864956,1378.971896,9030.512492
29054.234241,-2516.700203,-1915.238745,10510.924376
29054.234569,-1184.329507,-2911.162892,10807.006753
29054.234898,-962.267725,-689.485948,10066.800811
29054.235226,1036.288319,842.705048,8586.388927
29054.235555,2442.679609,1072.533697,7920.203579
29054.235883,1036.288319,1455.581446,8438.347739
29054.236212,814.226536,2374.896044,9400.615463
29054.236540,1184.329507,3217.601092,9474.636058
29054.236869,-444.123565,2221.676944,8956.491898
29054.237197,-518.144159,-153.219100,9918.759623
29054.237526,-518.144159,-383.047749,11029.068536
29054.237854,-148.041188,1225.752797,11325.150913
29054.238183,1480.411884,842.705048,10732.986159
29054.238511,2664.741391,-1225.752797,8660.409521
29054.238840,1554.432478,229.828649,7402.059420
29054.239168,222.061783,3524.039291,6883.915261
29054.239497,814.226536,3677.258390,6883.915261
29054.239825,-888.247130,919.314598,8734.430116
29054.240154,-2664.741391,-919.314598,9696.697840
29054.240482,-2738.761985,842.705048,10214.842000
29054.240811,-1850.514855,459.657299,9030.512492
29054.241139,222.061783,-1149.143247,10140.821405
29054.241468,518.144159,-1302.362347,11251.130318
29054.241796,1628.453072,306.438199,8512.368333
29054.242125,2886.803174,1149.143247,7105.977043
29054.242454,1998.556043,383.047749,7254.018232
29054.242782,1110.308913,1915.238745,8142.265362
29054.243111,148.041188,3753.867940,9622.677246
29054.243439,-592.164754,689.485948,10955.047942
29054.243768,-814.226536,-2451.505594,10732.986159
29054.244096,-1110.308913,-2987.772442,10214.842000
29054.244425,518.144159,-766.095498,10362.883188
29054.244753,1258.350101,842.705048,9548.656652
29054.245082,2812.782580,153.219100,8882.471304
29054.245410,2368.659014,-306.438199,9326.594869
29054.245739,592.164754,1991.848295,7476.080014
29054.246067,-592.164754,2681.334243,7772.162391
29054.246396,-1110.308913,306.438199,8438.347739
29054.246724,-2516.700203,-766.095498,9992.780217
29054.247053,-3330.926739,-612.876398,10436.903782
29054.247381,-2146.597232,-1378.971896,9992.780217
29054.247710,-370.102971,-2068.457845,8882.471304
29054.248038,1036.288319,-1072.533697,9992.780217
29054.248367,2072.576638,1225.752797,9844.739029
29054.248695,2368.659014,2528.115143,8068.244768
29054.249024,1628.453072,1455.581446,7328.038826
29054.249352,1924.535449,1149.143247,9400.615463
29054.249681,444.123565,3600.648841,10807.006753
29054.250009,-1776.494261,3294.210641,10288.862594
29054.250338,-1924.535449,-1302.362347,10436.903782
29054.250666,-2146.597232,-4519.963438,11177.109724
29054.250995,-2664.741391,-2451.505594,10955.047942
29054.251324,-740.205942,0.000000,9474.636058
29054.251652,444.123565,153.219100,9104.533087
29054.251981,666.185348,689.485948,8734.430116
29054.252309,666.185348,1838.629195,8216.285956
29054.252638,-222.061783,2757.943793,8956.491898
29054.252966,-1110.308913,1838.629195,8364.327145
29054.253295,-296.082377,0.000000,9622.677246
29054.253623,-1258.350101,153.219100,11103.089130
29054.253952,-1628.453072,1302.362347,10732.986159
29054.254280,1036.288319,-153.219100,9474.636058
29054.254609,2590.720797,-2451.505594,8438.347739
29054.254937,2146.597232,-689.485948,8364.327145
29054.255266,814.226536,3217.601092,8364.327145
29054.255594,444.123565,4749.792088,8364.327145
29054.255923,814.226536,2604.724693,8068.244768
29054.256251,-888.247130,76.609550,7624.121203
29054.256580,-2960.823768,459.657299,8512.368333
29054.256908,-2960.823768,2068.457845,8068.244768
29054.257237,-222.061783,1685.410096,9622.677246
29054.257565,1258.350101,-995.924147,10288.862594
29054.257894,1036.288319,-995.924147,8956.491898
29054.258222,1332.370696,1455.581446,7402.059420
29054.258551,1702.473667,2451.505594,7920.203579
29054.258879,814.226536,2451.505594,9252.574275
29054.259208,-1036.288319,1685.410096,9844.739029
29054.259537,-1332.370696,-536.266849,10362.883188
29054.259865,-1480.411884,-2068.457845,10066.800811
29054.260194,-1924.535449,-1608.800546,11399.171507
29054.260522,-814.226536,-919.314598,11621.233289
29054.260851,740.205942,229.828649,10140.821405
29054.261179,2664.741391,-153.219100,8882.471304
29054.261508,4145.153275,306.438199,10214.842000
29054.261836,1332.370696,3140.991542,7550.100608
29054.262165,0.000000,2987.772442,7105.977043
29054.262493,592.164754,306.438199,8364.327145
29054.262822,-370.102971,-995.924147,10436.903782
29054.263150,-2294.638420,-306.438199,11029.068536
29054.263479,-2294.638420,-689.485948,10955.047942
29054.263807,-888.247130,-3370.820191,10436.903782
29054.264136,222.061783,-3677.258390,9400.615463
29054.264464,1406.391290,-1685.410096,8660.409521
29054.264793,1702.473667,1072.533697,8068.244768
29054.265121,1480.411884,2374.896044,8068.244768
29054.265450,2294.638420,2528.115143,9474.636058
29054.265778,-370.102971,2145.067394,10288.862594
29054.266107,-1480.411884,229.828649,8364.327145
29054.266435,-1554.432478,-1149.143247,9104.533087
29054.266764,-592.164754,-1378.971896,10658.965565
29054.267092,962.267725,229.828649,11251.130318
29054.267421,2146.597232,0.000000,9844.739029
29054.267750,1184.329507,-766.095498,8808.450710
29054.268078,1036.288319,-612.876398,6957.935855
29054.268407,1480.411884,2528.115143,7550.100608
29054.268735,814.226536,2834.553343,10807.006753
29054.269064,-962.267725,1915.238745,9844.739029
29054.269392,-740.205942,0.000000,9696.697840
29054.269721,-740.205942,-689.485948,11177.109724
29054.270049,-1554.432478,919.314598,10288.862594
29054.270378,222.061783,536.266849,7698.141797
29054.270706,2368.659014,-612.876398,7772.162391
29054.271035,1110.308913,1532.190996,8512.368333
29054.271363,-962.267725,3370.820191,7179.997637
29054.271692,-666.185348,3447.429741,6883.915261
29054.272020,-1258.350101,689.485948,7476.080014
29054.272349,-2960.823768,0.000000,9474.636058
29054.272677,-2738.761985,612.876398,10510.924376
29054.273006,-2738.761985,383.047749,10140.821405
29054.273334,-1332.370696,-766.095498,9844.739029
29054.273663,740.205942,-2987.772442,9696.697840
29054.273991,1554.432478,-153.219100,8956.491898
29054.274320,2146.597232,3370.820191,7920.203579
29054.274648,2664.741391,3600.648841,8586.388927
29054.274977,2220.617826,1302.362347,8882.471304
29054.275305,-592.164754,919.314598,9104.533087
29054.275634,-1332.370696,1302.362347,9844.739029
29054.275962,-1406.391290,0.000000,10288.862594
29054.276291,-1554.432478,-1762.019645,10955.047942
29054.276620,-1036.288319,-1685.410096,11991.336260
29054.276948,-592.164754,612.876398,10807.006753
29054.277277,1406.391290,459.657299,8290.306550
29054.277605,2960.823768,-306.438199,8364.327145
29054.277934,148.041188,1532.190996,7254.018232
29054.278262,-1184.329507,3140.991542,7550.100608
29054.278591,-1036.288319,1762.019645,8808.450710
29054.278919,-1776.494261,-459.657299,10955.047942
29054.279248,-3108.864956,-2068.457845,11177.109724
29054.279576,-2886.803174,-2068.457845,10362.883188
29054.279905,-666.185348,-2374.896044,9548.656652
29054.280233,1998.556043,-1915.238745,9474.636058
29054.280562,3108.864956,0.000000,10140.821405
29054.280890,2368.659014,2145.067394,8808.450710
29054.281219,1554.432478,3524.039291,7772.162391
29054.281547,2516.700203,2374.896044,8290.306550
29054.281876,1480.411884,1608.800546,9770.718434
29054.282204,-296.082377,1225.752797,10214.842000
29054.282533,-1036.288319,536.266849,9548.656652
29054.282862,0.000000,-1225.752797,10288.862594
29054.283190,0.000000,-1685.410096,10066.800811
29054.283519,814.226536,-1225.752797,9104.533087
29054.283847,962.267725,-229.828649,7550.100608
29054.284176,222.061783,919.314598,7846.182985
29054.284505,148.041188,1532.190996,7328.038826
29054.284833,370.102971,1072.533697,9474.636058
29054.285162,-888.247130,842.705048,9844.739029
29054.285490,-1554.432478,-459.657299,9548.656652
29054.285819,-1036.288319,-1072.533697,11251.130318
29054.286147,-592.164754,0.000000,11621.233289
29054.286476,814.226536,-153.219100,10362.883188
29054.286805,4071.132681,-995.924147,8364.327145
29054.287133,3478.967927,-76.609550,6883.915261
29054.287462,1480.411884,3294.210641,7402.059420
29054.287790,888.247130,5209.449386,7772.162391
29054.288119,1406.391290,2987.772442,7772.162391
29054.288447,0.000000,459.657299,8882.471304
29054.288776,-1702.473667,-612.876398,9918.759623
29054.289105,-2960.823768,919.314598,9844.739029
29054.289433,-1406.391290,153.219100,10140.821405
29054.289762,0.000000,-2221.676944,10436.903782
29054.290090,-666.185348,-1915.238745,9474.636058
29054.290419,-888.247130,612.876398,7476.080014
29054.290747,0.000000,1838.629195,6587.832884
29054.291076,-296.082377,1225.752797,8438.347739
29054.291405,-2146.597232,1455.581446,10066.800811
29054.291733,-1998.556043,306.438199,10658.965565
29054.292062,-1702.473667,-1225.752797,10362.883188
29054.292390,-1998.556043,-1991.848295,11251.130318
29054.292719,-1554.432478,-612.876398,11399.171507
29054.293047,148.041188,612.876398,10584.944971
29054.293376,2294.638420,0.000000,8142.265362
29054.293705,4441.235652,-1225.752797,7920.203579
29054.294033,2590.720797,1915.238745,8734.430116
29054.294362,222.061783,5669.106685,9844.739029
29054.294690,666.185348,3907.087040,10140.821405
29054.295019,0.000000,-1149.143247,11547.212695
29054.295348,-1258.350101,-3064.381992,10436.903782
29054.295676,-2590.720797,-995.924147,9252.574275
29054.296005,-1406.391290,766.095498,11029.068536
29054.296333,962.267725,0.000000,9326.594869
29054.296662,1184.329507,-612.876398,7772.162391
29054.296990,888.247130,842.705048,6883.915261
29054.297319,-518.144159,4596.572988,5625.565159
29054.297648,-296.082377,4903.011187,6291.750507
29054.297976,0.000000,1915.238745,9400.615463
29054.298305,-2220.617826,459.657299,9474.636058
29054.298633,-3627.009116,-1149.143247,9918.759623
29054.298962,-2664.741391,-536.266849,10658.965565
29054.299290,-740.205942,-1378.971896,9992.780217
29054.299619,0.000000,-1915.238745,10140.821405
29054.299948,666.185348,-1838.629195,9178.553681
29054.300276,1258.350101,612.876398,8216.285956
29054.300605,2072.576638,3370.820191,7846.182985
29054.300933,1628.453072,1991.848295,8660.409521
29054.301262,0.000000,919.314598,9326.594869
29054.301590,-962.267725,1685.410096,9844.739029
29054.301919,1184.329507,536.266849,11029.068536
29054.302248,888.247130,-383.047749,11769.274478
29054.302576,1628.453072,-1302.362347,10436.903782
29054.302905,3330.926739,-153.219100,9030.512492
29054.303233,4219.173869,766.095498,7920.203579
29054.303562,2664.741391,2221.676944,7550.100608
29054.303890,1924.535449,2451.505594,7550.100608
29054.304219,1998.556043,1991.848295,7920.203579
29054.304548,666.185348,1149.143247,9474.636058
29054.304876,-1036.288319,76.609550,10288.862594
29054.305205,-2442.679609,-919.314598,11251.130318
29054.305533,-1924.535449,-1608.800546,9696.697840
29054.305862,740.205942,-2068.457845,10214.842000
29054.306191,1480.411884,-1072.533697,9326.594869
29054.306519,518.144159,919.314598,8290.306550
29054.306848,888.247130,1915.238745,6513.812290
29054.307176,1480.411884,1225.752797,8586.388927
29054.307505,-1110.308913,1915.238745,9178.553681
29054.307833,-2812.782580,995.924147,10436.903782
29054.308162,-2590.720797,-766.095498,10436.903782
29054.308491,-2516.700203,-2757.943793,11177.109724
29054.308819,-2516.700203,-2221.676944,12139.377449
29054.309148,-814.226536,-383.047749,11547.212695
29054.309476,2146.597232,76.609550,9918.759623
29054.309805,4145.153275,-383.047749,8438.347739
29054.310133,2368.659014,1302.362347,8438.347739
29054.310462,-444.123565,4136.915689,8660.409521
29054.310791,-296.082377,4136.915689,8512.368333
29054.311119,-740.205942,689.485948,9918.759623
29054.311448,-2664.741391,-1685.410096,9844.739029
29054.311776,-4293.194464,-766.095498,8734.430116
29054.312105,-2664.741391,-1225.752797,9030.512492
29054.312433,-1702.473667,-995.924147,9474.636058
29054.312762,-888.247130,-1608.800546,8216.285956
29054.313091,-444.123565,0.000000,7105.977043
29054.313419,148.041188,2911.162892,6143.709319
29054.313748,296.082377,3830.477490,6513.812290
29054.314076,-1332.370696,2604.724693,8216.285956
29054.314405,-2590.720797,-536.266849,8956.491898
29054.314734,-1998.556043,-689.485948,9770.718434
29054.315062,-1332.370696,-689.485948,11473.192101
29054.315391,0.000000,-995.924147,11325.150913
29054.315719,962.267725,-995.924147,10732.986159
29054.316048,2072.576638,-842.705048,9178.553681
29054.316376,3256.906145,995.924147,7476.080014
29054.316705,3552.988522,2298.286494,7105.977043
29054.317034,2960.823768,4136.915689,9696.697840
29054.317362,1258.350101,4519.963438,10362.883188
29054.317691,444.123565,2298.286494,10362.883188
29054.318019,1110.308913,-766.095498,10362.883188
29054.318348,-222.061783,-1225.752797,10732.986159
29054.318676,-518.144159,0.000000,9696.697840
29054.319005,1924.535449,153.219100,9622.677246
29054.319334,2368.659014,-459.657299,10140.821405
29054.319662,296.082377,766.095498,9030.512492
29054.319991,-592.164754,1455.581446,6883.915261
29054.320319,-740.205942,612.876398,7105.977043
29054.320648,-1480.411884,1685.410096,8142.265362
29054.320976,-1776.494261,1302.362347,11029.068536
29054.321305,-2220.617826,306.438199,11029.068536
29054.321634,-1998.556043,-689.485948,9474.636058
29054.321962,888.247130,-1302.362347,8734.430116
29054.322291,2146.597232,0.000000,9548.656652
29054.322619,2368.659014,2681.334243,7624.121203
29054.322948,2960.823768,3140.991542,7772.162391
29054.323276,2738.761985,995.924147,7772.162391
29054.323605,296.082377,919.314598,8956.491898
29054.323934,-2072.576638,2145.067394,10584.944971
29054.324262,-1850.514855,306.438199,10066.800811
29054.324591,-2368.659014,-2221.676944,10732.986159
29054.324919,-2960.823768,-3140.991542,12509.480420
29054.325248,-1480.411884,-995.924147,12213.398043
29054.325577,592.164754,-229.828649,8364.327145
29054.325905,2442.679609,-842.705048,7624.121203
29054.326234,1850.514855,536.266849,8068.244768
29054.326562,-148.041188,4903.011187,8142.265362
29054.326891,0.000000,5132.839837,8142.265362
29054.327219,148.041188,76.609550,8512.368333
29054.327548,-2368.659014,-3370.820191,10288.862594
29054.327877,-3256.906145,-1532.190996,10436.903782
29054.328205,-1480.411884,842.705048,10066.800811
29054.328534,-148.041188,-1225.752797,10362.883188
29054.328862,592.164754,-3907.087040,8956.491898
29054.329191,1702.473667,-1838.629195,5995.668130
29054.329519,1406.391290,3907.087040,5995.668130
29054.329848,148.041188,6511.811733,7402.059420
29054.330177,592.164754,2374.896044,6513.812290
29054.330505,-444.123565,-919.314598,7846.182985
29054.330834,-1258.350101,306.438199,10510.924376
29054.331162,-1184.329507,2221.676944,10658.965565
29054.331491,-592.164754,612.876398,10066.800811
29054.331819,814.226536,-2834.553343,10288.862594
29054.332148,1776.494261,-2374.896044,8586.388927
29054.332477,1776.494261,153.219100,8068.244768
29054.332805,2294.638420,2834.553343,9326.594869
29054.333134,1998.556043,3447.429741,11473.192101
29054.333462,222.061783,2068.457845,11695.253884
29054.333791,-222.061783,306.438199,11843.295072
29054.334119,370.102971,-1378.971896,10807.006753
29054.334448,-222.061783,-612.876398,10732.986159
29054.334777,-740.205942,459.657299,9400.615463
29054.335105,518.144159,459.657299,10288.862594
29054.335434,1480.411884,536.266849,9326.594869
29054.335762,592.164754,995.924147,7920.203579
29054.336091,-1998.556043,1149.143247,7476.080014
29054.336420,-2886.803174,1608.800546,6661.853478
29054.336748,-3552.988522,2374.896044,7254.018232
29054.337077,-2738.761985,76.609550,10140.821405
29054.337405,-4441.235652,-919.314598,9844.739029
29054.337734,-4811.338623,-1225.752797,9326.594869
29054.338062,-1332.370696,-612.876398,9474.636058
29054.338391,1036.288319,766.095498,9474.636058
29054.338720,592.164754,1532.190996,9104.533087
29054.339048,1998.556043,1532.190996,6439.791695
29054.339377,2368.659014,2681.334243,6439.791695
29054.339705,1554.432478,2911.162892,9178.553681
29054.340034,-592.164754,2987.772442,9844.739029
29054.340362,-1702.473667,229.828649,10955.047942
29054.340691,-1184.329507,-2604.724693,11251.130318
29054.341020,-888.247130,-1915.238745,12287.418637
29054.341348,666.185348,-2068.457845,12065.356855
29054.341677,1924.535449,-766.095498,8364.327145
29054.342005,2960.823768,-153.219100,7105.977043
29054.342334,2812.782580,1378.971896,7846.182985
29054.342662,1554.432478,4290.134789,7994.224174
29054.342991,740.205942,3370.820191,7402.059420
29054.343320,888.247130,-306.438199,8956.491898
29054.343648,-1332.370696,-1685.410096,9770.718434
29054.343977,-2590.720797,0.000000,11103.089130
29054.344305,-888.247130,-766.095498,10214.842000
29054.344634,1258.350101,-3140.991542,9400.615463
29054.344963,2072.576638,-2987.772442,9844.739029
29054.345291,3627.009116,995.924147,8438.347739
29054.345620,4219.173869,3447.429741,7846.182985
29054.345948,3256.906145,3294.210641,8290.306550
29054.346277,2886.803174,842.705048,7772.162391
29054.346605,1036.288319,1072.533697,9622.677246
29054.346934,-592.164754,2451.505594,11177.109724
29054.347263,-518.144159,1455.581446,10807.006753
29054.347591,74.020594,-2374.896044,10658.965565
29054.347920,-444.123565,-2987.772442,9622.677246
29054.348248,0.000000,-383.047749,10288.862594
29054.348577,1110.308913,1149.143247,8216.285956
29054.348905,592.164754,1072.533697,6883.915261
29054.349234,-1406.391290,1762.019645,8364.327145
29054.349563,-3182.885551,2987.772442,9844.739029
29054.349891,-2886.803174,2987.772442,9770.718434
29054.350220,-2590.720797,-1149.143247,10510.924376
29054.350548,-4145.153275,-3294.210641,10658.965565
29054.350877,-4441.235652,-2068.457845,10214.842000
29054.351205,-1332.370696,459.657299,9844.739029
29054.351534,1554.432478,229.828649,9474.636058
29054.351863,444.123565,-536.266849,8216.285956
29054.352191,-888.247130,1378.971896,6957.935855
29054.352520,0.000000,4136.915689,7031.956449
29054.352848,222.061783,3983.696590,8364.327145
29054.353177,-1332.370696,1072.533697,10658.965565
29054.353505,-2886.803174,-1072.533697,10362.883188
29054.353834,-2368.659014,-306.438199,10436.903782
29054.354163,0.000000,-383.047749,10955.047942
29054.354491,1924.535449,-1302.362347,10510.924376
29054.354820,2664.741391,-995.924147,9252.574275
29054.355148,2220.617826,689.485948,8068.244768
29054.355477,2960.823768,2987.772442,7624.121203
29054.355806,1628.453072,2681.334243,7846.182985
29054.356134,0.000000,1762.019645,8290.306550
29054.356463,-1258.350101,995.924147,9474.636058
29054.356791,-2146.597232,-229.828649,9770.718434
29054.357120,-1924.535449,-842.705048,10288.862594
29054.357448,-296.082377,-2221.676944,10732.986159
29054.357777,1184.329507,-1225.752797,9548.656652
29054.358106,2220.617826,229.828649,7920.203579
29054.358434,2664.741391,1378.971896,7254.018232
29054.358763,1628.453072,2681.334243,7698.141797
29054.359091,1554.432478,2987.772442,8364.327145
29054.359420,518.144159,2068.457845,8438.347739
29054.359748,-962.267725,229.828649,9252.574275
29054.360077,-2294.638420,-612.876398,11029.068536
29054.360406,-1480.411884,-1149.143247,10658.965565
29054.360734,74.020594,-1685.410096,11029.068536
29054.361063,1702.473667,-1532.190996,10362.883188
29054.361391,2368.659014,0.000000,8586.388927
29054.361720,2516.700203,1378.971896,6809.894666
29054.362048,814.226536,2757.943793,6957.935855
29054.362377,0.000000,2834.553343,8364.327145
29054.362706,-1702.473667,1838.629195,10214.842000
29054.363034,-2738.761985,536.266849,11029.068536
29054.363363,-1702.473667,-2374.896044,10584.944971
29054.363691,-962.267725,-2221.676944,10362.883188
29054.364020,0.000000,-1378.971896,10955.047942
29054.364348,1332.370696,76.609550,9474.636058
29054.364677,2812.782580,-306.438199,8364.327145
29054.365006,3627.009116,842.705048,7772.162391
29054.365334,2442.679609,3370.820191,8364.327145
29054.365663,1998.556043,4749.792088,8438.347739
29054.365991,1702.473667,2374.896044,9252.574275
29054.366320,888.247130,0.000000,9770.718434
29054.366649,-1406.391290,-383.047749,11399.171507
29054.366977,-1776.494261,-459.657299,10955.047942
29054.367306,444.123565,-1532.190996,10140.821405
29054.367634,74.020594,-2298.286494,10288.862594
29054.367963,-666.185348,-1991.848295,8586.388927
29054.368291,-296.082377,-153.219100,6587.832884
29054.368620,-222.061783,2757.943793,6735.874072
29054.368949,-1554.432478,2221.676944,8882.471304
29054.369277,-3108.864956,0.000000,8512.368333
29054.369606,-4367.215058,229.828649,9474.636058
29054.369934,-3627.009116,0.000000,10732.986159
29054.370263,-1554.432478,-2068.457845,9844.739029
29054.370591,888.247130,-2757.943793,9030.512492
29054.370920,518.144159,-383.047749,10658.965565
29054.371249,2368.659014,2757.943793,8364.327145
29054.371577,3701.029710,1685.410096,8808.450710
29054.371906,3108.864956,766.095498,10288.862594
29054.372234,222.061783,2681.334243,10288.862594
29054.372563,0.000000,2681.334243,9696.697840
29054.372891,592.164754,842.705048,10362.883188
29054.373220,-296.082377,-536.266849,11251.130318
29054.373549,-1406.391290,153.219100,10066.800811
29054.373877,666.185348,1685.410096,7698.141797
29054.374206,2072.576638,995.924147,6809.894666
29054.374534,666.185348,1455.581446,7328.038826
29054.374863,-1628.453072,2911.162892,7920.203579
29054.375192,-2072.576638,2834.553343,6735.874072
29054.375520,-2590.720797,689.485948,8142.265362
29054.375849,-4589.276840,-1455.581446,10214.842000
29054.376177,-5477.523971,-842.705048,11695.253884
29054.376506,-4367.215058,-459.657299,10807.006753
29054.376834,-2072.576638,-2145.067394,10510.924376
29054.377163,148.041188,-2451.505594,9770.718434
29054.377492,2960.823768,766.095498,7254.018232
29054.377820,4737.318029,3907.087040,6439.791695
29054.378149,4515.256246,5209.449386,6587.832884
29054.378477,4441.235652,4366.744339,8364.327145
29054.378806,1924.535449,3370.820191,10732.986159
29054.379134,-222.061783,1685.410096,10955.047942
29054.379463,-592.164754,-842.705048,10955.047942
29054.379792,-962.267725,-2451.505594,12065.356855
29054.380120,-2146.597232,-2068.457845,11917.315666
29054.380449,740.205942,-919.314598,11177.109724
29054.380777,2072.576638,-995.924147,9622.677246
29054.381106,2072.576638,-536.266849,7402.059420
29054.381434,1110.308913,2145.067394,7254.018232
29054.381763,148.041188,4903.011187,8512.368333
29054.382092,0.000000,3677.258390,8512.368333
29054.382420,666.185348,-612.876398,8734.430116
29054.382749,-888.247130,-2834.553343,9844.739029
29054.383077,-2146.597232,-383.047749,10732.986159
29054.383406,370.102971,383.047749,9992.780217
29054.383734,3552.988522,-1838.629195,10066.800811
29054.384063,2960.823768,-3217.601092,9178.553681
29054.384392,1184.329507,-842.705048,6661.853478
29054.384720,1406.391290,2374.896044,6143.709319
29054.385049,1554.432478,1991.848295,8068.244768
29054.385377,222.061783,689.485948,10881.027347
29054.385706,-1184.329507,-306.438199,11103.089130
29054.386034,-1332.370696,-1149.143247,9844.739029
29054.386363,-518.144159,-2528.115143,10362.883188
29054.386692,296.082377,-2451.505594,11399.171507
29054.387020,592.164754,-689.485948,9548.656652
29054.387349,1702.473667,919.314598,8290.306550
29054.387677,2442.679609,0.000000,7328.038826
29054.388006,296.082377,459.657299,7624.121203
29054.388334,-2368.659014,1762.019645,9104.533087
29054.388663,-2664.741391,1532.190996,10066.800811
29054.388991,-2886.803174,-1225.752797,10288.862594
29054.389320,-2590.720797,-2681.334243,10362.883188
29054.389649,-2368.659014,-2834.553343,10214.842000
29054.389977,-1258.350101,459.657299,10436.903782
29054.390306,1036.288319,1991.848295,9474.636058
29054.390634,3404.947333,306.438199,7772.162391
29054.390963,1776.494261,1991.848295,6883.915261
29054.391291,814.226536,5209.449386,7105.977043
29054.391620,740.205942,6741.640382,7772.162391
29054.391949,-2146.597232,2911.162892,9252.574275
29054.392277,-5255.462188,-229.828649,10214.842000
29054.392606,-5625.565159,-1455.581446,10584.944971
29054.392934,-3627.009116,-995.924147,9844.739029
29054.393263,-962.267725,0.000000,10362.883188
29054.393591,-222.061783,306.438199,10807.006753
29054.393920,592.164754,1685.410096,7698.141797
29054.394249,1776.494261,3753.867940,5403.503377
29054.394577,4441.235652,3370.820191,6883.915261
29054.394906,2886.803174,5822.325785,9548.656652
29054.395234,1776.494261,6128.763984,9770.718434
29054.395563,2442.679609,3140.991542,10807.006753
29054.395891,1850.514855,-1072.533697,11843.295072
29054.396220,592.164754,-995.924147,11621.233289
29054.396549,1480.411884,-383.047749,10362.883188
29054.396877,2368.659014,0.000000,9326.594869
29054.397206,1924.535449,-536.266849,8364.327145
29054.397534,296.082377,612.876398,8068.244768
29054.397863,-1480.411884,2757.943793,7994.224174
29054.398191,-2368.659014,2221.676944,7179.997637
29054.398520,-2664.741391,-229.828649,9326.594869
29054.398849,-3034.844362,-2451.505594,10584.944971
29054.399177,-5181.441594,-1225.752797,11399.171507
29054.399506,-3701.029710,-1608.800546,9992.780217
29054.399834,-222.061783,-3524.039291,8882.471304
29054.400163,1036.288319,-3600.648841,8438.347739
29054.400491,1776.494261,0.000000,8512.368333
29054.400820,1702.473667,3370.820191,7994.224174
29054.401149,1998.556043,2681.334243,8068.244768
29054.401477,1406.391290,-1072.533697,9104.533087
29054.401806,0.000000,-1762.019645,11177.109724
29054.402134,222.061783,0.000000,10658.965565
29054.402463,1702.473667,-689.485948,10955.047942
29054.402791,2368.659014,-2451.505594,11399.171507
29054.403120,2442.679609,-2451.505594,10436.903782
29054.403448,2960.823768,-1302.362347,7402.059420
29054.403777,3701.029710,76.609550,6661.853478
29054.404106,1110.308913,1608.800546,7179.997637
29054.404434,-740.205942,2834.553343,7846.182985
29054.404763,-1258.350101,1378.971896,8808.450710
29054.405091,-2886.803174,-1991.848295,8142.265362
29054.405420,-4293.194464,-2451.505594,9844.739029
29054.405748,-4663.297435,-2681.334243,10658.965565
29054.406077,-3108.864956,-1302.362347,10140.821405
29054.406406,-518.144159,-2145.067394,10955.047942
29054.406734,1406.391290,-2681.334243,10510.924376
29054.407063,592.164754,0.000000,7328.038826
29054.407391,74.020594,2374.896044,7179.997637
29054.407720,1702.473667,3907.087040,9252.574275
29054.408048,1184.329507,2757.943793,10807.006753
29054.408377,148.041188,2145.067394,11399.171507
29054.408706,-888.247130,459.657299,9178.553681
29054.409034,-592.164754,-229.828649,9030.512492
29054.409363,1110.308913,1455.581446,9622.677246
29054.409691,2960.823768,2987.772442,10288.862594
29054.410020,2442.679609,2987.772442,8956.491898
29054.410348,1554.432478,1838.629195,6809.894666
29054.410677,2220.617826,2221.676944,7476.080014
29054.411006,518.144159,4903.011187,9548.656652
29054.411334,-1628.453072,6205.373534,9622.677246
29054.411663,-1184.329507,1608.800546,9178.553681
29054.411991,-1998.556043,-2451.505594,9844.739029
29054.412320,-3478.967927,-689.485948,10140.821405
29054.412648,-1850.514855,1915.238745,10510.924376
29054.412977,-666.185348,689.485948,8660.409521
29054.413306,-222.061783,-1838.629195,6217.729913
29054.413634,-444.123565,-1072.533697,6957.935855
29054.413963,-1184.329507,2987.772442,9252.574275
29054.414291,-518.144159,4749.792088,9770.718434
29054.414620,-370.102971,766.095498,10288.862594
29054.414948,-2368.659014,-3524.039291,10807.006753
29054.415277,-2516.700203,-2604.724693,10658.965565
29054.415606,296.082377,-383.047749,10436.903782
29054.415934,2812.782580,-383.047749,11769.274478
29054.416263,2442.679609,-1915.238745,10214.842000
29054.416591,1184.329507,0.000000,9252.574275
29054.416920,2368.659014,1149.143247,7105.977043
29054.417248,2220.617826,2298.286494,7476.080014
29054.417577,814.226536,1532.190996,9474.636058
29054.417905,-592.164754,1302.362347,10436.903782
29054.418234,-1332.370696,1149.143247,9548.656652
29054.418563,-666.185348,-306.438199,10362.883188
29054.418891,74.020594,-1378.971896,10288.862594
29054.419220,444.123565,-1149.143247,8956.491898
29054.419548,740.205942,1149.143247,7402.059420
29054.419877,2442.679609,1378.971896,7105.977043
29054.420205,666.185348,1991.848295,7698.141797
29054.420534,-814.226536,2681.334243,7994.224174
29054.420863,-1776.494261,2145.067394,8216.285956
29054.421191,-2146.597232,0.000000,8734.430116
29054.421520,-3552.988522,-536.266849,10140.821405
29054.421848,-3627.009116,153.219100,11177.109724
29054.422177,-2516.700203,536.266849,10881.027347
29054.422505,-888.247130,-459.657299,9252.574275
29054.422834,0.000000,-1915.238745,9474.636058
29054.423163,148.041188,-612.876398,7698.141797
29054.423491,-296.082377,4519.963438,7846.182985
29054.423820,666.185348,3677.258390,9770.718434
29054.424148,1406.391290,1072.533697,9770.718434
29054.424477,-222.061783,0.000000,10066.800811
29054.424805,0.000000,459.657299,11177.109724
29054.425134,1924.535449,1149.143247,10140.821405
29054.425463,2294.638420,383.047749,11399.171507
29054.425791,3775.050304,-2068.457845,9622.677246
29054.426120,4145.153275,-689.485948,8512.368333
29054.426448,3775.050304,2757.943793,8882.471304
29054.426777,3849.070898,3294.210641,8808.450710
29054.427105,1776.494261,1225.752797,8882.471304
29054.427434,-592.164754,0.000000,9918.759623
29054.427763,-1480.411884,-536.266849,9474.636058
29054.428091,-3034.844362,-1072.533697,9622.677246
29054.428420,-2812.782580,-2298.286494,11029.068536
29054.428748,-1998.556043,-2221.676944,9474.636058
29054.429077,-592.164754,-2451.505594,8438.347739
29054.429405,518.144159,-2451.505594,7105.977043
29054.429734,370.102971,536.266849,7994.224174
29054.430063,296.082377,2451.505594,9474.636058
29054.430391,148.041188,3064.381992,8734.430116
29054.430720,2294.638420,612.876398,9992.780217
29054.431048,1406.391290,-1072.533697,10510.924376
29054.431377,-370.102971,383.047749,10288.862594
29054.431705,1184.329507,766.095498,10288.862594
29054.432034,2960.823768,-612.876398,10214.842000
29054.432362,2960.823768,-919.314598,8068.244768
29054.432691,2442.679609,1455.581446,7402.059420
29054.433020,1258.350101,3370.820191,7179.997637
29054.433348,-444.123565,3677.258390,7846.182985
29054.433677,-2072.576638,1378.971896,8290.306550
29054.434005,-3404.947333,-536.266849,9548.656652
29054.434334,-4885.359217,-536.266849,8956.491898
29054.434662,-4885.359217,1225.752797,9548.656652
29054.434991,-3256.906145,0.000000,10066.800811
29054.435320,-2442.679609,-1378.971896,8586.388927
29054.435648,-2738.761985,-995.924147,7920.203579
29054.435977,-370.102971,153.219100,7105.977043
29054.436305,-518.144159,2451.505594,8734.430116
29054.436634,-2294.638420,1991.848295,9474.636058
29054.436962,-3108.864956,1455.581446,10362.883188
29054.437291,-2442.679609,-459.657299,11103.089130
29054.437620,-1036.288319,-1149.143247,10658.965565
29054.437948,518.144159,-1302.362347,10955.047942
29054.438277,444.123565,0.000000,11769.274478
29054.438605,3256.906145,2451.505594,10732.986159
29054.438934,6439.791695,2145.067394,8882.471304
29054.439262,5995.668130,2068.457845,7698.141797
29054.439591,3997.112087,3753.867940,5995.668130
29054.439920,2812.782580,4903.011187,7624.121203
29054.440248,2220.617826,3064.381992,9326.594869
29054.440577,296.082377,-612.876398,10214.842000
29054.440905,-1628.453072,-3447.429741,10066.800811
29054.441234,-1332.370696,-2604.724693,9696.697840
29054.441562,740.205942,-1532.190996,8364.327145
29054.441891,2294.638420,-1532.190996,10658.965565
29054.442220,2664.741391,-1915.238745,9104.533087
29054.442548,3182.885551,-1532.190996,5403.503377
29054.442877,4145.153275,-766.095498,5181.441594
29054.443205,2960.823768,1685.410096,8364.327145
29054.443534,814.226536,2757.943793,10584.944971
29054.443862,1628.453072,-1225.752797,11103.089130
29054.444191,1406.391290,-5898.935335,11473.192101
29054.444520,-1036.288319,-6128.763984,13249.686362
29054.444848,0.000000,-2911.162892,12509.480420
29054.445177,2960.823768,-2604.724693,11325.150913
29054.445505,3627.009116,-4749.792088,10214.842000
29054.445834,3775.050304,-3753.867940,7920.203579
29054.446162,2738.761985,1225.752797,7402.059420
29054.446491,2368.659014,3064.381992,7772.162391
29054.446819,2220.617826,383.047749,8438.347739
29054.447148,-222.061783,-2528.115143,11177.109724
29054.447477,-1702.473667,-3064.381992,9770.718434
29054.447805,-814.226536,-2221.676944,9400.615463
29054.448134,-518.144159,-2374.896044,11695.253884
29054.448462,-1036.288319,-1915.238745,10436.903782
29054.448791,518.144159,-1915.238745,6883.915261
29054.449119,3627.009116,-229.828649,5921.647536
29054.449448,5477.523971,1838.629195,3775.050304
29054.449777,4441.235652,4060.306139,4663.297435
29054.450105,3478.967927,3907.087040,6217.729913
29054.450434,2220.617826,1455.581446,7105.977043
29054.450762,370.102971,-689.485948,10881.027347
29054.451091,296.082377,-3217.601092,12731.542202
29054.451419,-444.123565,-2068.457845,12287.418637
29054.451748,-1702.473667,-2911.162892,12805.562797
29054.452077,-222.061783,-3983.696590,11325.150913
29054.452405,888.247130,-2834.553343,9104.533087
29054.452734,1776.494261,306.438199,7698.141797
29054.453062,3330.926739,1915.238745,5107.421000
29054.453391,2072.576638,995.924147,5181.441594
29054.453719,1184.329507,-689.485948,7179.997637
29054.454048,518.144159,-2757.943793,9178.553681
29054.454377,-962.267725,-3753.867940,12805.562797
29054.454705,-1332.370696,-4290.134789,15174.221811
29054.455034,518.144159,-5056.230287,14285.974681
29054.455362,1628.453072,-5515.887586,14137.933492
29054.455691,1998.556043,-2145.067394,13767.830521
29054.456019,4811.338623,1455.581446,10584.944971
29054.456348,7846.182985,3524.039291,7920.203579
29054.456677,9770.718434,2834.553343,3923.091493
29054.457005,9178.553681,3830.477490,2368.659014
29054.457334,9474.636058,4596.572988,1554.432478
29054.457662,9474.636058,3217.601092,2960.823768
29054.457991,6661.853478,-1762.019645,7254.018232
29054.458319,2516.700203,-4903.011187,11843.295072
29054.458648,222.061783,-6894.859482,13397.727550
29054.458977,-666.185348,-7890.783629,15988.448347
29054.459305,-3701.029710,-8503.660028,17172.777854
29054.459634,-5329.482782,-6971.469032,14582.057057
29054.459962,-3330.926739,-4366.744339,11547.212695
29054.460291,-888.247130,-1915.238745,9770.718434
29054.460619,296.082377,995.924147,7624.121203
29054.460948,148.041188,3677.258390,4367.215058
29054.461276,2220.617826,3983.696590,1850.514855
29054.461605,2886.803174,2757.943793,2812.782580
29054.461934,3108.864956,-459.657299,3627.009116
29054.462262,3849.070898,-3140.991542,5551.544565
29054.462591,2886.803174,-5209.449386,7624.121203
29054.462919,2072.576638,-7124.688131,12953.603985
29054.463248,1628.453072,-9422.974625,15840.407159
29054.463576,222.061783,-9959.241474,17172.777854
29054.463905,148.041188,-8427.050478,18061.024985
29054.464234,1110.308913,-5822.325785,17320.819043
29054.464562,2072.576638,-1455.581446,14804.118840
29054.464891,2664.741391,2145.067394,12435.459826
29054.465219,3997.112087,4826.401637,7328.038826
29054.465548,4663.297435,6971.469032,3775.050304
29054.465876,3775.050304,9193.145976,1258.350101
29054.466205,3404.947333,9499.584175,-0.000000
29054.466534,2516.700203,5975.544884,-370.102971
29054.466862,-370.102971,1302.362347,444.123565
29054.467191,-2886.803174,-2451.505594,3478.967927
29054.467519,-5107.421000,-7201.297681,6883.915261
29054.467848,-5995.668130,-10725.336972,10510.924376
29054.468176,-4959.379811,-13483.280765,14211.954086
29054.468505,-3330.926739,-13713.109414,17616.901420
29054.468834,518.144159,-11338.213370,18357.107362
29054.469162,5477.523971,-8656.879127,15766.386565
29054.469491,9918.759623,-2911.162892,14434.015869
29054.469819,12139.377449,3370.820191,13915.871710
29054.470148,14285.974681,9729.412825,10362.883188
29054.470476,14878.139434,11951.089769,8216.285956
29054.470805,13471.748144,11184.994271,7105.977043
29054.471134,10288.862594,10725.336972,6365.771101
29054.471462,5551.544565,9806.022374,6217.729913
29054.471791,962.267725,4213.525239,6143.709319
29054.472119,-4219.173869,-3447.429741,6143.709319
29054.472448,-7105.977043,-8580.269578,7254.018232
29054.472776,-8808.450710,-9652.803275,8438.347739
29054.473105,-9696.697840,-10572.117872,8364.327145
29054.473434,-8290.306550,-11951.089769,10066.800811
29054.473762,-5921.647536,-11261.603821,10955.047942
29054.474091,-2738.761985,-7660.954980,11843.295072
29054.474419,2442.679609,-3830.477490,12509.480420
29054.474748,8290.306550,0.000000,11547.212695
29054.475076,11177.109724,3600.648841,9844.739029
29054.475405,13545.768739,6281.983084,7772.162391
29054.475733,14063.912898,8120.612279,5773.606348
29054.476062,13101.645173,7431.126331,4367.215058
29054.476391,12657.521608,5439.278036,5773.606348
29054.476719,8808.450710,3447.429741,5921.647536
29054.477048,2368.659014,842.705048,6883.915261
29054.477376,-1554.432478,-4903.011187,7328.038826
29054.477705,-3849.070898,-10342.289223,9770.718434
29054.478033,-6809.894666,-12257.527968,12213.398043
29054.478362,-9030.512492,-13100.233016,13101.645173
29054.478691,-7994.224174,-13100.233016,14063.912898
29054.479019,-5551.544565,-12563.966167,15026.180623
29054.479348,-2368.659014,-9039.926876,15692.365970
29054.479676,0.000000,-2987.772442,14582.057057
29054.480005,2368.659014,1532.190996,11843.295072
29054.480333,4811.338623,4443.353888,9918.759623
29054.480662,5033.400406,5362.668486,7031.956449
29054.480991,5995.668130,5822.325785,4293.194464
29054.481319,3849.070898,5822.325785,5403.503377
29054.481648,1628.453072,5056.230287,7105.977043
29054.481976,592.164754,2757.943793,7031.956449
29054.482304,-666.185348,-1915.238745,6513.812290
29054.482633,-3330.926739,-5592.497135,6587.832884
29054.482961,-3701.029710,-4979.620737,6143.709319
29054.483290,-2146.597232,-3524.039291,6957.935855
29054.483619,-666.185348,-4366.744339,8216.285956
29054.483947,0.000000,-4443.353888,8808.450710
29054.484276,1850.514855,-2834.553343,9548.656652
29054.484604,4589.276840,153.219100,9992.780217
29054.484933,5847.626942,1915.238745,9992.780217
29054.485261,7402.059420,2145.067394,11029.068536
29054.485590,7105.977043,3830.477490,10881.027347
29054.485919,7772.162391,3294.210641,7846.182985
29054.486247,9104.533087,1378.971896,7846.182985
29054.486576,7105.977043,842.705048,9844.739029
29054.486904,3923.091493,3524.039291,11843.295072
29054.487233,3627.009116,1072.533697,10807.006753
29054.487561,2812.782580,-5745.716235,11695.253884
29054.487890,-370.102971,-9499.584175,11991.336260
29054.488219,-2590.720797,-6971.469032,12657.521608
29054.488547,-1702.473667,-4673.182538,12213.398043
29054.488876,-1480.411884,-6511.811733,11251.130318
29054.489204,-666.185348,-9039.926876,9474.636058
29054.489533,1850.514855,-4519.963438,10584.944971
29054.489862,3552.988522,2911.162892,11325.150913
29054.490190,3330.926739,5439.278036,8142.265362
29054.490519,3256.906145,1915.238745,6217.729913
29054.490847,3849.070898,842.705048,5921.647536
29054.491176,3701.029710,5209.449386,5773.606348
29054.491504,2886.803174,5975.544884,5033.400406
29054.491833,2664.741391,-612.876398,6143.709319
29054.492162,666.185348,-3370.820191,7402.059420
29054.492490,-1036.288319,-1762.019645,9622.677246
29054.492819,-1998.556043,-842.705048,9400.615463
29054.493147,-2664.741391,-4443.353888,8512.368333
29054.493476,-3034.844362,-6818.249932,8882.471304
29054.493804,-2220.617826,-3983.696590,9326.594869
29054.494133,-1554.432478,0.000000,10140.821405
29054.494462,-1702.473667,-1685.410096,9474.636058
29054.494790,0.000000,-4060.306139,9104.533087
29054.495119,1702.473667,-2681.334243,9770.718434
29054.495447,2738.761985,2451.505594,8808.450710
29054.495776,2664.741391,3140.991542,8364.327145
29054.496104,2220.617826,-1302.362347,7402.059420
29054.496433,2886.803174,-2604.724693,7698.141797
29054.496762,2886.803174,-1762.019645,9696.697840
29054.497090,1924.535449,-689.485948,10881.027347
29054.497419,1628.453072,-3064.381992,10658.965565
29054.497747,3478.967927,-6971.469032,11177.109724
29054.498076,5181.441594,-6128.763984,11843.295072
29054.498404,5551.544565,-3294.210641,11177.109724
29054.498733,6513.812290,-2451.505594,9696.697840
29054.499062,8808.450710,-2757.943793,8734.430116
29054.499390,10066.800811,-2451.505594,8882.471304
29054.499719,9992.780217,536.266849,8956.491898
29054.500047,9104.533087,1149.143247,7476.080014
29054.500376,8364.327145,-1302.362347,7105.977043
29054.500704,7254.018232,-3217.601092,7476.080014
29054.501033,5033.400406,-2528.115143,8660.409521
29054.501362,3330.926739,-3217.601092,9474.636058
29054.501690,1258.350101,-5362.668486,9474.636058
29054.502019,0.000000,-8044.002729,10584.944971
29054.502347,-370.102971,-7354.516781,11769.274478
29054.502676,-888.247130,-5209.449386,11621.233289
29054.503004,-888.247130,-4290.134789,10362.883188
29054.503333,148.041188,-5669.106685,10807.006753
29054.503662,-296.082377,-3753.867940,11917.315666
29054.503990,-1480.411884,-1225.752797,11399.171507
29054.504319,-1110.308913,-459.657299,11325.150913
29054.504647,-962.267725,-1762.019645,11251.130318
29054.504976,-1850.514855,-1378.971896,10807.006753
29054.505304,-1776.494261,0.000000,9918.759623
29054.505633,-814.226536,1608.800546,8956.491898
29054.505962,-1258.350101,842.705048,7550.100608
29054.506290,-1258.350101,612.876398,6661.853478
29054.506619,-1258.350101,1378.971896,6883.915261
29054.506947,-962.267725,2528.115143,5995.668130
29054.507276,-518.144159,1685.410096,6439.791695
29054.507605,-1110.308913,0.000000,6735.874072
29054.507933,-592.164754,-229.828649,7772.162391
29054.508262,-1184.329507,229.828649,7994.224174
29054.508590,0.000000,153.219100,9252.574275
29054.508919,370.102971,0.000000,9474.636058
29054.509247,1110.308913,536.266849,9178.553681
29054.509576,2738.761985,2145.067394,7772.162391
29054.509905,3627.009116,2987.772442,6513.812290
29054.510233,4811.338623,3294.210641,6143.709319
29054.510562,6365.771101,2068.457845,6365.771101
29054.510890,7179.997637,2145.067394,6439.791695
29054.511219,7105.977043,842.705048,7105.977043
29054.511547,6735.874072,-995.924147,8882.471304
29054.511876,5773.606348,-3294.210641,11251.130318
29054.512205,3849.070898,-3983.696590,13397.727550
29054.512533,2886.803174,-4826.401637,15174.221811
29054.512862,2442.679609,-5209.449386,16802.674883
29054.513190,2516.700203,-4903.011187,15766.386565
29054.513519,3627.009116,-3140.991542,13101.645173
29054.513847,5181.441594,-536.266849,11325.150913
29054.514176,5477.523971,2298.286494,9474.636058
29054.514505,6439.791695,3677.258390,6513.812290
29054.514833,7105.977043,2987.772442,3701.029710
29054.515162,7254.018232,2681.334243,3330.926739
29054.515490,5181.441594,2528.115143,3997.112087
29054.515819,2738.761985,612.876398,5181.441594
29054.516147,1702.473667,-4136.915689,7105.977043
29054.516476,1850.514855,-8733.488677,8438.347739
29054.516805,1332.370696,-10189.070123,10214.842000
29054.517133,592.164754,-10725.336972,10584.944971
29054.517462,1184.329507,-9882.631924,10807.006753
29054.517790,2368.659014,-9422.974625,12583.501014
29054.518119,1998.556043,-7967.393179,14211.954086
29054.518447,296.082377,-4903.011187,13767.830521
29054.518776,222.061783,-2298.286494,12213.398043
29054.519105,888.247130,-1378.971896,11399.171507
29054.519433,444.123565,0.000000,11177.109724
